TIMESTAMP,ACCX,ACCX_filtered
2025-01-08 10:57:27.061510144,-0.01146752,-0.058424099795753304
2025-01-08 10:57:27.062437888,-0.00544488,-0.05990013941691496
2025-01-08 10:57:27.074065920,0.01796463,-0.06130116073143497
2025-01-08 10:57:27.126234112,0.0540964,-0.06262647578199185
2025-01-08 10:57:27.126252800,0.09059474,-0.06387544359743169
2025-01-08 10:57:27.126347008,0.1058037,-0.06504747049565492
2025-01-08 10:57:27.126358016,0.09384459,-0.06614201035646455
2025-01-08 10:57:27.126364928,0.07857209,-0.06715856486425456
2025-01-08 10:57:27.196348928,0.07396716,-0.06809668372043805
2025-01-08 10:57:27.196367104,0.07416132,-0.06895596482553337
2025-01-08 10:57:27.196374784,0.05937546,-0.06973605443084863
2025-01-08 10:57:27.196381952,0.05166513,-0.07043664725972248
2025-01-08 10:57:27.196387072,0.05926543,-0.07105748659830217
2025-01-08 10:57:27.196392960,0.05003291,-0.07159836435585705
2025-01-08 10:57:27.196398080,0.03073347,-0.0720591210946483
2025-01-08 10:57:27.202162944,0.03420675,-0.07243964602939365
2025-01-08 10:57:27.215213056,0.0503087,-0.07273987699638668
2025-01-08 10:57:27.222928896,0.05807501,-0.07295980039235109
2025-01-08 10:57:27.232552960,0.06523293,-0.07309945108312774
2025-01-08 10:57:27.244168960,0.08434916,-0.07315891228231414
2025-01-08 10:57:27.252374784,0.10943103,-0.0731383153999948
2025-01-08 10:57:27.264642048,0.12391406,-0.07303783986171979
2025-01-08 10:57:27.272398080,0.12006545,-0.07285771289790918
2025-01-08 10:57:27.283598848,0.10480088,-0.07259820930387902
2025-01-08 10:57:27.293504000,0.07770962,-0.07225965117070418
2025-01-08 10:57:27.302302976,0.04682201,-0.07184240758715255
2025-01-08 10:57:27.312297216,0.01640534,-0.07134689431294189
2025-01-08 10:57:27.354619904,-0.01776713,-0.07077357342359139
2025-01-08 10:57:27.354640128,-0.04812402,-0.07012295292715613
2025-01-08 10:57:27.354647040,-0.0687207,-0.06939558635315168
2025-01-08 10:57:27.354652928,-0.07010287,-0.06859207231399335
2025-01-08 10:57:27.363449088,-0.06146246,-0.06771305403929186
2025-01-08 10:57:27.372292096,-0.05662745,-0.06675921888336483
2025-01-08 10:57:27.382910976,-0.06167305,-0.06573129780633997
2025-01-08 10:57:27.397468928,-0.06566721,-0.06463006482924219
2025-01-08 10:57:27.402360064,-0.05634654,-0.06345633646347384
2025-01-08 10:57:27.412427008,-0.04423583,-0.06221097111511282
2025-01-08 10:57:27.422476032,-0.04715788,-0.06089486846446857
2025-01-08 10:57:27.432406016,-0.06537008,-0.059508968821352086
2025-01-08 10:57:27.442575872,-0.07817584,-0.058054252456530446
2025-01-08 10:57:27.453061120,-0.07896155,-0.056531738909851144
2025-01-08 10:57:27.462429952,-0.08045554,-0.054942486275535704
2025-01-08 10:57:27.472465920,-0.08686513,-0.053287590465156284
2025-01-08 10:57:27.482691072,-0.08718097,-0.05156818444882169
2025-01-08 10:57:27.492459008,-0.08371377,-0.0497854374751134
2025-01-08 10:57:27.502443008,-0.08743811,-0.04794055427032404
2025-01-08 10:57:27.512492800,-0.08955091,-0.04603477421756345
2025-01-08 10:57:27.522493952,-0.0938918,-0.04406937051630943
2025-01-08 10:57:27.548422144,-0.10244244,-0.04204564932299152
2025-01-08 10:57:27.548438016,-0.11021733,-0.03996494887320769
2025-01-08 10:57:27.554363136,-0.10932678,-0.03782863858618339
2025-01-08 10:57:27.562539008,-0.10068727,-0.03563811815209458
2025-01-08 10:57:27.572563968,-0.08460474,-0.033394816602883584
2025-01-08 10:57:27.582561024,-0.0686655,-0.03110019136720798
2025-01-08 10:57:27.592748032,-0.05702442,-0.028755727310170943
2025-01-08 10:57:27.602619904,-0.04661727,-0.026362935758489026
2025-01-08 10:57:27.612765184,-0.0400247,-0.02392335351176245
2025-01-08 10:57:27.622652928,-0.03947639,-0.021438541840520374
2025-01-08 10:57:27.632653824,-0.04335934,-0.018910085471719282
2025-01-08 10:57:27.643366144,-0.05181694,-0.016339591562380632
2025-01-08 10:57:27.652733184,-0.0648424,-0.01372868866205928
2025-01-08 10:57:27.662683136,-0.07984489,-0.011079025664839823
2025-01-08 10:57:27.672573952,-0.08977312,-0.00839227075156276
2025-01-08 10:57:27.682688000,-0.09763652,-0.0056701103229876365
2025-01-08 10:57:27.692692992,-0.10361379,-0.002914247924603613
2025-01-08 10:57:27.702636032,-0.10741669,-0.0001264031638021247
2025-01-08 10:57:27.712637952,-0.10574341,0.002691689379870962
2025-01-08 10:57:27.722695168,-0.09626168,0.005538281250663549
2025-01-08 10:57:27.732631040,-0.08217621,0.00841161121804377
2025-01-08 10:57:27.744539904,-0.06584167,0.011309906382880777
2025-01-08 10:57:27.752739840,-0.04904574,0.014231383287654909
2025-01-08 10:57:27.762689024,-0.04314101,0.01717424902997173
2025-01-08 10:57:27.772651008,-0.0390057,0.020136702378654343
2025-01-08 10:57:27.782757888,-0.03948343,0.023116934891688354
2025-01-08 10:57:27.792768000,-0.04830992,0.02611313203529548
2025-01-08 10:57:27.802742016,-0.04841459,0.029123474303412108
2025-01-08 10:57:27.812929024,-0.04556507,0.03214613833685204
2025-01-08 10:57:27.823454976,-0.05645478,0.03517929804143384
2025-01-08 10:57:27.832954880,-0.08892488,0.038221125704357393
2025-01-08 10:57:27.844736000,-0.12940359,0.041269793108115696
2025-01-08 10:57:27.853156096,-0.15552998,0.044323472641233666
2025-01-08 10:57:27.863072000,-0.16307527,0.047380338405128335
2025-01-08 10:57:27.873074176,-0.15559298,0.050438567316390265
2025-01-08 10:57:27.883176960,-0.12360907,0.053496340203791404
2025-01-08 10:57:27.894083072,-0.09584564,0.05655184289932907
2025-01-08 10:57:27.902816000,-0.08635336,0.05960326732262322
2025-01-08 10:57:27.912849920,-0.07857901,0.06264881255798967
2025-01-08 10:57:27.922990080,-0.06128711,0.06568668592351896
2025-01-08 10:57:27.932840192,-0.06250006,0.06871510403149875
2025-01-08 10:57:27.944459008,-0.061566,0.07173229383952383
2025-01-08 10:57:27.952918016,-0.04385698,0.07473649369164814
2025-01-08 10:57:27.962939136,-0.02240205,0.07772595434893978
2025-01-08 10:57:27.973069824,0.01223212,0.08069894000881021
2025-01-08 10:57:27.982998016,0.04213488,0.0836537293124985
2025-01-08 10:57:27.993923840,0.057845,0.0865886163400998
2025-01-08 10:57:28.003004928,0.05314529,0.08950191159253952
2025-01-08 10:57:28.014816000,0.03813928,0.09239194295990337
2025-01-08 10:57:28.022988032,0.0536418,0.09525705667554564
2025-01-08 10:57:28.033010944,0.11007762,0.09809561825540886
2025-01-08 10:57:28.043454976,0.1551975,0.10090601342199947
2025-01-08 10:57:28.053334016,0.15822387,0.10368664901247725
2025-01-08 10:57:28.063646976,0.17265278,0.10643595387032624
2025-01-08 10:57:28.074140160,0.20489752,0.1091523797200907
2025-01-08 10:57:28.083184896,0.21783751,0.11183440202466996
2025-01-08 10:57:28.095000064,0.21888769,0.1144805208246801
2025-01-08 10:57:28.103241984,0.21570468,0.11708926155940517
2025-01-08 10:57:28.113363968,0.21825701,0.11965917586887224
2025-01-08 10:57:28.123385856,0.21898133,0.12218884237660084
2025-01-08 10:57:28.133104128,0.21780741,0.12467686745259002
2025-01-08 10:57:28.143422976,0.20127964,0.1271218859561223
2025-01-08 10:57:28.158772992,0.1677556,0.12952256195797757
2025-01-08 10:57:28.163539968,0.18499511,0.13187758944166506
2025-01-08 10:57:28.173230848,0.22762179,0.13418569298329872
2025-01-08 10:57:28.183028992,0.26199514,0.13644562840975294
2025-01-08 10:57:28.193187840,0.27393377,0.1386561834347563
2025-01-08 10:57:28.202989056,0.25393766,0.1408161782725921
2025-01-08 10:57:28.213071104,0.28593469,0.14292446622909363
2025-01-08 10:57:28.223123200,0.31795454,0.14497993426963737
2025-01-08 10:57:28.233128960,0.29140681,0.1469815035638534
2025-01-08 10:57:28.256334080,0.2934956,0.14892813000678873
2025-01-08 10:57:28.256350976,0.30029511,0.15081880471627676
2025-01-08 10:57:28.264805120,0.26281065,0.15265255450628168
2025-01-08 10:57:28.273166848,0.31601298,0.1544284423360043
2025-01-08 10:57:28.283188224,0.46541876,0.15614556773455204
2025-01-08 10:57:28.293394176,0.41137499,0.15780306720099335
2025-01-08 10:57:28.303127040,0.38357389,0.15940011457963343
2025-01-08 10:57:28.313262848,0.46999341,0.16093592141036542
2025-01-08 10:57:28.323241984,0.61005855,0.16240973725396862
2025-01-08 10:57:28.333345792,0.64179784,0.16382084999224192
2025-01-08 10:57:28.343365888,0.45381278,0.16516858610287766
2025-01-08 10:57:28.353379840,0.2358138,0.16645231090899984
2025-01-08 10:57:28.364141824,0.17622942,0.16767142880330535
2025-01-08 10:57:28.373549056,0.21480596,0.16882538344676587
2025-01-08 10:57:28.383405056,0.21780193,0.16991365794186516
2025-01-08 10:57:28.393383936,0.18359625,0.17093577498036172
2025-01-08 10:57:28.403527936,0.15186584,0.17189129696558633
2025-01-08 10:57:28.414195968,0.17199188,0.17277982610929882
2025-01-08 10:57:28.423328000,0.15635157,0.17360100450314678
2025-01-08 10:57:28.433403904,0.08894253,0.17435451416478406
2025-01-08 10:57:28.443269120,0.04061991,0.17504007705872604
2025-01-08 10:57:28.453417984,0.00396681,0.17565745509203184
2025-01-08 10:57:28.463418880,-0.04051119,0.17620645008492353
2025-01-08 10:57:28.473447168,-0.05563879,0.176686903716466
2025-01-08 10:57:28.483432960,-0.06120944,0.17709869744544898
2025-01-08 10:57:28.493292032,-0.06601065,0.1774417524066276
2025-01-08 10:57:28.503438848,-0.05413449,0.17771602928249422
2025-01-08 10:57:28.513456128,-0.04823053,0.17792152815077042
2025-01-08 10:57:28.523574016,-0.04022104,0.17805828830782158
2025-01-08 10:57:28.533436160,-0.01083028,0.17812638806821435
2025-01-08 10:57:28.543366912,0.00170594,0.1781259445406501
2025-01-08 10:57:28.553512192,-0.01618886,0.1780571133805233
2025-01-08 10:57:28.563363072,-0.02905005,0.17792008851936886
2025-01-08 10:57:28.573553152,-0.03066045,0.17771510187147513
2025-01-08 10:57:28.583518976,-0.04068542,0.17744242301795465
2025-01-08 10:57:28.593566976,-0.04779595,0.1771023588685795
2025-01-08 10:57:28.603562240,-0.05937946,0.17669525330169814
2025-01-08 10:57:28.613544960,-0.07324654,0.17622148678256885
2025-01-08 10:57:28.623521024,-0.05641663,0.17568147596045322
2025-01-08 10:57:28.633595904,0.00527227,0.1750756732448292
2025-01-08 10:57:28.643577088,0.03014076,0.17440456636109414
2025-01-08 10:57:28.653604096,0.03962785,0.1736686778861403
2025-01-08 10:57:28.663439104,0.07883418,0.17286856476419812
2025-01-08 10:57:28.673605888,0.0791955,0.17200481780335253
2025-01-08 10:57:28.683620864,0.04632574,0.1710780611531509
2025-01-08 10:57:28.693574912,0.02169406,0.1700889517637293
2025-01-08 10:57:28.703671040,0.01051575,0.16903817882689684
2025-01-08 10:57:28.713635840,0.00753963,0.16792646319962673
2025-01-08 10:57:28.723602176,0.02082181,0.16675455681041182
2025-01-08 10:57:28.733952000,0.03534615,0.16552324204895422
2025-01-08 10:57:28.743544064,0.01122111,0.16423333113966423
2025-01-08 10:57:28.753669888,0.01335824,0.16288566549945668
2025-01-08 10:57:28.763540992,0.03989661,0.16148111508033652
2025-01-08 10:57:28.773554176,0.06017071,0.16002057769727784
2025-01-08 10:57:28.783703040,0.06197464,0.15850497834190483
2025-01-08 10:57:28.793734144,0.06648076,0.15693526848249229
2025-01-08 10:57:28.803693056,0.07289308,0.1553124253508091
2025-01-08 10:57:28.813724160,0.05430079,0.15363745121633557
2025-01-08 10:57:28.823646976,0.04046774,0.1519113726483897
2025-01-08 10:57:28.833810176,0.06513464,0.1501352397667057
2025-01-08 10:57:28.843741952,0.11226279,0.14831012548101094
2025-01-08 10:57:28.853683968,0.14985919,0.14643712472015372
2025-01-08 10:57:28.864113920,0.20347381,0.14451735365133847
2025-01-08 10:57:28.873778176,0.21699828,0.14255194889002823
2025-01-08 10:57:28.883776000,0.18382877,0.14054206670107938
2025-01-08 10:57:28.894160128,0.1463055,0.13848888219167557
2025-01-08 10:57:28.904214016,0.14201403,0.1363935884966308
2025-01-08 10:57:28.913747200,0.16079062,0.13425739595663466
2025-01-08 10:57:28.924356864,0.09490299,0.13208153129001446
2025-01-08 10:57:28.933798144,0.02725869,0.12986723675858985
2025-01-08 10:57:28.944009984,0.01379055,0.1276157693281981
2025-01-08 10:57:28.953843200,-0.00638735,0.12532839982446783
2025-01-08 10:57:28.963736064,-0.01693338,0.12300641208441991
2025-01-08 10:57:28.973825024,0.1179558,0.12065110210447445
2025-01-08 10:57:28.983863040,0.45051795,0.1182637771854416
2025-01-08 10:57:28.993857024,0.60525239,0.1158457550750739
2025-01-08 10:57:29.003891968,0.59796822,0.11339836310875687
2025-01-08 10:57:29.013753856,0.43536818,0.11092293734891133
2025-01-08 10:57:29.024034048,0.4079929,0.10842082172368121
2025-01-08 10:57:29.033912832,0.48775971,0.10589336716547673
2025-01-08 10:57:29.043955968,0.50107777,0.10334193074994046
2025-01-08 10:57:29.053821184,0.34982806,0.10076787483590072
2025-01-08 10:57:29.063948032,0.34856826,0.09817256620687335
2025-01-08 10:57:29.073789952,0.372123,0.09555737521466885
2025-01-08 10:57:29.083944960,0.34300822,0.0929236749256575
2025-01-08 10:57:29.094022144,0.24228847,0.09027284027024118
2025-01-08 10:57:29.104044800,0.26036566,0.08760624719607438
2025-01-08 10:57:29.114007040,0.26403695,0.084925271825573
2025-01-08 10:57:29.124089088,0.28937232,0.08223128961824275
2025-01-08 10:57:29.133933056,0.30626917,0.07952567453835388
2025-01-08 10:57:29.144129024,0.20080268,0.07680979822848141
2025-01-08 10:57:29.154144000,0.1983602,0.0740850291894249
2025-01-08 10:57:29.164000000,0.26705176,0.0713527319670134
2025-01-08 10:57:29.174156800,0.22115171,0.06861426634629522
2025-01-08 10:57:29.184120064,0.21246958,0.06587098655360274
2025-01-08 10:57:29.194025984,0.24357271,0.06312424046697687
2025-01-08 10:57:29.204168960,0.19915545,0.06037536883542558
2025-01-08 10:57:29.214124032,0.1530875,0.05762570450748335
2025-01-08 10:57:29.224247808,0.14179868,0.054876571669529424
2025-01-08 10:57:29.234016768,0.13318354,0.05212928509431378
2025-01-08 10:57:29.244008192,0.10107416,0.04938514940013003
2025-01-08 10:57:29.254084096,0.09088385,0.046645458321065446
2025-01-08 10:57:29.264040960,0.08675796,0.043911493988747906
2025-01-08 10:57:29.273974016,0.10928869,0.0411845262259999
2025-01-08 10:57:29.284126976,0.11250347,0.03846581185279883
2025-01-08 10:57:29.294130944,0.08234215,0.03575659400493345
2025-01-08 10:57:29.303994880,0.05293727,0.033058101465734
2025-01-08 10:57:29.314144000,0.04513055,0.030371548011243723
2025-01-08 10:57:29.324326144,0.05252999,0.027698131769188
2025-01-08 10:57:29.334091008,0.0489924,0.025039034592085948
2025-01-08 10:57:29.344141056,0.03243548,0.022395421444837405
2025-01-08 10:57:29.354235904,0.00334543,0.019768439807107276
2025-01-08 10:57:29.364231936,-0.04160583,0.01715921909081674
2025-01-08 10:57:29.374221056,-0.07737708,0.01456887007303922
2025-01-08 10:57:29.384227072,-0.08308357,0.011998484344585754
2025-01-08 10:57:29.394277120,-0.07205981,0.00944913377455417
2025-01-08 10:57:29.404215040,-0.05294394,0.006921869991101758
2025-01-08 10:57:29.414253824,-0.04970944,0.004417723878690044
2025-01-08 10:57:29.424173056,-0.08240384,0.0019377050920371284
2025-01-08 10:57:29.434359040,-0.12735295,-0.0005171984129999349
2025-01-08 10:57:29.444276992,-0.16430473,-0.00294602083140237
2025-01-08 10:57:29.454339072,-0.15713942,-0.005347818943630022
2025-01-08 10:57:29.466936064,-0.11578542,-0.007721672532740817
2025-01-08 10:57:29.474425088,-0.08127493,-0.010066684783818107
2025-01-08 10:57:29.484348160,-0.04434067,-0.012381982665548442
2025-01-08 10:57:29.494134016,-0.08555162,-0.014666717293805068
2025-01-08 10:57:29.504297984,-0.22127908,-0.01692006427710565
2025-01-08 10:57:29.514294016,0.04839057,-0.019141224043825917
2025-01-08 10:57:29.524460032,0.38116568,-0.021329422151064363
2025-01-08 10:57:29.534388992,-0.06171268,-0.023483909575065756
2025-01-08 10:57:29.544183040,-0.5934419,-0.025603962983125568
2025-01-08 10:57:29.554204928,-0.39014041,-0.027688884986908906
2025-01-08 10:57:29.564352000,0.40066844,-0.029738004377132515
2025-01-08 10:57:29.574446080,0.92140478,-0.03175067633957022
2025-01-08 10:57:29.584388096,0.9301582,-0.03372628265235579
2025-01-08 10:57:29.594260992,0.86020696,-0.03566423186457048
2025-01-08 10:57:29.604445952,0.88830531,-0.037563959456114515
2025-01-08 10:57:29.614777088,1.05300617,-0.03942492797887602
2025-01-08 10:57:29.624557056,1.18541431,-0.04124662717922271
2025-01-08 10:57:29.634381056,1.13790441,-0.04302857410185444
2025-01-08 10:57:29.644305920,1.07796526,-0.04477031317506801
2025-01-08 10:57:29.654539008,1.0502125,-0.04647141627749744
2025-01-08 10:57:29.664446976,0.96576631,-0.04813148278640563
2025-01-08 10:57:29.674575104,0.73252892,-0.04975013960761555
2025-01-08 10:57:29.684391936,0.59596151,-0.05132704118718133
2025-01-08 10:57:29.694400000,0.78242022,-0.05286186950491158
2025-01-08 10:57:29.704508160,0.96501142,-0.05435433404986895
2025-01-08 10:57:29.714338048,0.91878283,-0.05580417177798188
2025-01-08 10:57:29.724525824,0.71331197,-0.05721114705191629
2025-01-08 10:57:29.734388224,0.43859535,-0.05857505156336518
2025-01-08 10:57:29.744422912,0.12722471,-0.05989570423792723
2025-01-08 10:57:29.754720000,-0.17413834,-0.061172951122754435
2025-01-08 10:57:29.764542976,-0.35382387,-0.06240666525716095
2025-01-08 10:57:29.774373120,-0.44476792,-0.06359674652639606
2025-01-08 10:57:29.784573952,-0.47654405,-0.06474312149879315
2025-01-08 10:57:29.794578944,-0.52652192,-0.06584574324651851
2025-01-08 10:57:29.804563968,-0.64718461,-0.06690459115015308
2025-01-08 10:57:29.814573056,-0.79078305,-0.06791967068734901
2025-01-08 10:57:29.824512000,-0.92255467,-0.06889101320581478
2025-01-08 10:57:29.834685184,-0.96824408,-0.06981867568088927
2025-01-08 10:57:29.844579072,-0.95767498,-0.07070274045797645
2025-01-08 10:57:29.854576128,-1.02838802,-0.07154331498011951
2025-01-08 10:57:29.864697088,-1.22744703,-0.07234053150100292
2025-01-08 10:57:29.874674176,-1.30920517,-0.0730945467836792
2025-01-08 10:57:29.884499200,-1.29421473,-0.07380554178532388
2025-01-08 10:57:29.894553856,-1.4106313,-0.07447372132833176
2025-01-08 10:57:29.904537856,-1.6741302,-0.07509931375807403
2025-01-08 10:57:29.914597120,-1.84732914,-0.07568257058764333
2025-01-08 10:57:29.924622080,-1.89591634,-0.07622376612992034
2025-01-08 10:57:29.934562816,-1.89918971,-0.07672319711730333
2025-01-08 10:57:29.944638976,-1.95150089,-0.07718118230944732
2025-01-08 10:57:29.954857984,-1.93888283,-0.07759806208936595
2025-01-08 10:57:29.964736000,-1.95533836,-0.07797419804825581
2025-01-08 10:57:29.974662144,-1.7966249,-0.07830997255940715
2025-01-08 10:57:29.984705024,-1.15198398,-0.07860578834157111
2025-01-08 10:57:29.994729984,-0.38479221,-0.0788620680121588
2025-01-08 10:57:30.004582912,-0.00306457,-0.07907925363065083
2025-01-08 10:57:30.014735872,-0.0140484,-0.07925780623260202
2025-01-08 10:57:30.024857088,0.00332296,-0.07939820535462883
2025-01-08 10:57:30.034754048,-0.1725086,-0.07950094855077101
2025-01-08 10:57:30.044787968,-0.25175995,-0.07956655090062364
2025-01-08 10:57:30.054658048,-0.01991856,-0.07959554450963603
2025-01-08 10:57:30.064755968,0.12048185,-0.07958847800198122
2025-01-08 10:57:30.074911232,0.01154816,-0.07954591600639718
2025-01-08 10:57:30.085464064,-0.1724208,-0.07946843863540777
2025-01-08 10:57:30.094772992,-0.30432779,-0.07935664095832998
2025-01-08 10:57:30.104666112,-0.38323152,-0.07921113246847813
2025-01-08 10:57:30.114775040,-0.39586037,-0.07903253654497505
2025-01-08 10:57:30.124907008,-0.22168505,-0.07882148990958239
2025-01-08 10:57:30.134844928,-0.00721306,-0.07857864207896345
2025-01-08 10:57:30.144818944,0.05575639,-0.07830465481279048
2025-01-08 10:57:30.155602944,0.08418798,-0.07800020155811062
2025-01-08 10:57:30.164983040,0.09866416,-0.07766596689038306
2025-01-08 10:57:30.175013120,0.08682489,-0.07730264595160032
2025-01-08 10:57:30.185056000,0.10746908,-0.07691094388590525
2025-01-08 10:57:30.194983936,0.20828575,-0.07649157527311506
2025-01-08 10:57:30.205043200,0.38263279,-0.07604526356056115
2025-01-08 10:57:30.215246848,0.44889826,-0.07557274049365348
2025-01-08 10:57:30.224957952,0.39666283,-0.07507474554557489
2025-01-08 10:57:30.234925056,0.32599747,-0.07455202534650941
2025-01-08 10:57:30.245012992,0.23411912,-0.07400533311280597
2025-01-08 10:57:30.254908928,0.14653921,-0.07343542807647603
2025-01-08 10:57:30.264861952,0.14434069,-0.07284307491542118
2025-01-08 10:57:30.274889984,0.20372593,-0.07222904318478246
2025-01-08 10:57:30.284881152,0.27397394,-0.07159410674980092
2025-01-08 10:57:30.294832896,0.31552851,-0.07093904322057441
2025-01-08 10:57:30.305015040,0.30090749,-0.07026463338909124
2025-01-08 10:57:30.314784000,0.25789273,-0.06957166066891822
2025-01-08 10:57:30.325081088,0.18262786,-0.06886091053791496
2025-01-08 10:57:30.334960896,0.09548682,-0.06813316998434199
2025-01-08 10:57:30.345005056,0.0314942,-0.06738922695672542
2025-01-08 10:57:30.355077120,-0.01710904,-0.06662986981783538
2025-01-08 10:57:30.364963072,-0.05086708,-0.06585588680313009
2025-01-08 10:57:30.375073024,-0.08351529,-0.06506806548401205
2025-01-08 10:57:30.385047808,-0.06471908,-0.06426719223623618
2025-01-08 10:57:30.395086080,0.00812364,-0.06345405171380497
2025-01-08 10:57:30.405323008,0.10532981,-0.0626294263286778
2025-01-08 10:57:30.415100160,0.18867958,-0.06179409573661653
2025-01-08 10:57:30.425151232,0.18968344,-0.060948836329482135
2025-01-08 10:57:30.434962944,0.20542252,-0.06009442073429017
2025-01-08 10:57:30.445099008,0.24621838,-0.05923161731932602
2025-01-08 10:57:30.455126016,0.27815771,-0.05836118970761439
2025-01-08 10:57:30.465056000,0.27079326,-0.05748389629802837
2025-01-08 10:57:30.474978048,0.24361616,-0.05660048979431777
2025-01-08 10:57:30.485219072,0.16868746,-0.05571171674232788
2025-01-08 10:57:30.495012096,0.08802027,-0.05481831707567175
2025-01-08 10:57:30.505209088,0.00184488,-0.053921023670111555
2025-01-08 10:57:30.515217152,-0.04492396,-0.05302056190689667
2025-01-08 10:57:30.525305088,-0.05226105,-0.05211764924529713
2025-01-08 10:57:30.535187968,-0.01645166,-0.05121299480456396
2025-01-08 10:57:30.545113088,-0.02113092,-0.05030729895553809
2025-01-08 10:57:30.555138048,-0.02532595,-0.04940125292212208
2025-01-08 10:57:30.565116928,-0.04739404,-0.04849553839281969
2025-01-08 10:57:30.575256064,-0.05294007,-0.04759082714254015
2025-01-08 10:57:30.585093120,-0.02884507,-0.046687780664853934
2025-01-08 10:57:30.595244800,-0.01552981,-0.0457870498148798
2025-01-08 10:57:30.605245952,-0.00824481,-0.04488927446297207
2025-01-08 10:57:30.615251968,-0.00053179,-0.04399508315936955
2025-01-08 10:57:30.625321984,-0.0341261,-0.04310509280995722
2025-01-08 10:57:30.635271168,-0.09245998,-0.042219908363283584
2025-01-08 10:57:30.645363200,-0.09358186,-0.04134012250896714
2025-01-08 10:57:30.655154944,-0.08289915,-0.040466315387615824
2025-01-08 10:57:30.665668864,-0.0758003,-0.039599054312374725
2025-01-08 10:57:30.678065152,-0.01713061,-0.03873889350220754
2025-01-08 10:57:30.685157120,0.0373112,-0.03788637382700824
2025-01-08 10:57:30.695130112,0.05816811,-0.0370420225646305
2025-01-08 10:57:30.705286912,0.06343907,-0.03620635316991202
2025-01-08 10:57:30.715195904,0.07480943,-0.03537986505576314
2025-01-08 10:57:30.725403136,0.08065367,-0.034563043386378785
2025-01-08 10:57:30.735405824,0.08267283,-0.03375635888262391
2025-01-08 10:57:30.745353984,0.10284024,-0.03296026763963346
2025-01-08 10:57:30.755374080,0.1504339,-0.032175210956658644
2025-01-08 10:57:30.765405952,0.17556727,-0.031401615179182225
2025-01-08 10:57:30.775456000,0.1820271,-0.03063989155331646
2025-01-08 10:57:30.785398016,0.1829502,-0.02989043609248811
2025-01-08 10:57:30.795262208,0.14871061,-0.029153629456406222
2025-01-08 10:57:30.805336832,0.112454,-0.028429836842299463
2025-01-08 10:57:30.815397888,0.09529418,-0.027719407888401004
2025-01-08 10:57:30.825340160,0.07088721,-0.027022676589649672
2025-01-08 10:57:30.835472128,0.05354232,-0.026339961225568195
2025-01-08 10:57:30.846388992,0.05217528,-0.025671564300270552
2025-01-08 10:57:30.855622912,0.06787014,-0.02501777249454157
2025-01-08 10:57:30.865641984,0.08717656,-0.024378856629923885
2025-01-08 10:57:30.875397888,0.09384233,-0.023755071644739355
2025-01-08 10:57:30.885318144,0.12638968,-0.02314665658196302
2025-01-08 10:57:30.895481088,0.15278614,-0.02255383458886089
2025-01-08 10:57:30.905360896,0.17621493,-0.021976812928293645
2025-01-08 10:57:30.915518976,0.19868153,-0.021415783001581482
2025-01-08 10:57:30.925633024,0.22565913,-0.020870920382817196
2025-01-08 10:57:30.935533056,0.2576732,-0.020342384864507526
2025-01-08 10:57:30.945537024,0.23602474,-0.019830320514414544
2025-01-08 10:57:30.955548160,0.24105388,-0.019334855743463022
2025-01-08 10:57:30.965539840,0.27764767,-0.018856103384570885
2025-01-08 10:57:30.975595008,0.26962596,-0.018394160782254927
2025-01-08 10:57:30.985687040,0.26362604,-0.01794910989285516
2025-01-08 10:57:30.995568896,0.29082859,-0.017521017395216356
2025-01-08 10:57:31.005594112,0.3257795,-0.0171099348116577
2025-01-08 10:57:31.015642880,0.37189054,-0.016715898639055853
2025-01-08 10:57:31.025715200,0.44446689,-0.016338930489860175
2025-01-08 10:57:31.035646976,0.48301196,-0.015979037242853593
2025-01-08 10:57:31.045619968,0.49510312,-0.01563621120346607
2025-01-08 10:57:31.055632128,0.50228864,-0.015310430273442904
2025-01-08 10:57:31.065530112,0.48752159,-0.015001658129663833
2025-01-08 10:57:31.075599872,0.43946034,-0.01470984441190495
2025-01-08 10:57:31.085648128,0.36290127,-0.014434924919328872
2025-01-08 10:57:31.095684096,0.31909102,-0.01417682181548562
2025-01-08 10:57:31.105680896,0.30059648,-0.013935443841600509
2025-01-08 10:57:31.115549184,0.30633467,-0.013710686537921807
2025-01-08 10:57:31.125596160,0.3127349,-0.013502432472896819
2025-01-08 10:57:31.135693056,0.29328185,-0.01331055147994048
2025-01-08 10:57:31.145711872,0.25511378,-0.013134900901557093
2025-01-08 10:57:31.155694080,0.22384971,-0.012975325840572606
2025-01-08 10:57:31.165555968,0.23414564,-0.012831659418230645
2025-01-08 10:57:31.175844864,0.23140109,-0.01270372303890331
2025-01-08 10:57:31.185740032,0.23934603,-0.012591326661163709
2025-01-08 10:57:31.195802880,0.24417633,-0.012494269074965857
2025-01-08 10:57:31.205893888,0.21839768,-0.012412338184673308
2025-01-08 10:57:31.216055040,0.17689282,-0.01234531129767747
2025-01-08 10:57:31.225997056,0.15012473,-0.012292955418342317
2025-01-08 10:57:31.236166912,0.12755454,-0.012255027547012725
2025-01-08 10:57:31.245762048,0.10420483,-0.012231274983819629
2025-01-08 10:57:31.255896064,0.04077393,-0.012221435637015327
2025-01-08 10:57:31.265901056,-0.02677971,-0.012225238335570212
2025-01-08 10:57:31.275960064,-0.05200243,-0.012242403145761537
2025-01-08 10:57:31.285883904,-0.06416178,-0.012272641691483567
2025-01-08 10:57:31.295710976,-0.07113719,-0.012315657478008366
2025-01-08 10:57:31.305753088,-0.09198946,-0.01237114621892521
2025-01-08 10:57:31.315616000,-0.11189717,-0.01243879616598742
2025-01-08 10:57:31.325933056,-0.12455553,-0.012518288441594359
2025-01-08 10:57:31.335845888,-0.1202122,-0.012609297373637408
2025-01-08 10:57:31.345750016,-0.09273022,-0.012711490832438256
2025-01-08 10:57:31.355907840,-0.01368999,-0.012824530569509086
2025-01-08 10:57:31.365948928,0.03108859,-0.012948072557864666
2025-01-08 10:57:31.376293888,0.00047427,-0.01308176733361744
2025-01-08 10:57:31.385995008,-0.03839445,-0.013225260338587742
2025-01-08 10:57:31.396094976,-0.09740829,-0.01337819226366275
2025-01-08 10:57:31.405960960,-0.14668888,-0.013540199392639243
2025-01-08 10:57:31.416014848,-0.16281462,-0.01371091394628699
2025-01-08 10:57:31.425921024,-0.20231503,-0.01388996442637156
2025-01-08 10:57:31.435975168,-0.23891813,-0.01407697595937707
2025-01-08 10:57:31.446000128,-0.27932817,-0.0142715706396723
2025-01-08 10:57:31.455981056,-0.32493782,-0.014473367871865622
2025-01-08 10:57:31.466013952,-0.37750655,-0.014681984712096403
2025-01-08 10:57:31.476020992,-0.39872807,-0.01489703620801452
2025-01-08 10:57:31.486092032,-0.38441181,-0.01511813573720119
2025-01-08 10:57:31.495992832,-0.37338316,-0.015344895343788526
2025-01-08 10:57:31.505914880,-0.40824264,-0.015576926073037447
2025-01-08 10:57:31.515894784,-0.43827802,-0.015813838303638368
2025-01-08 10:57:31.526065152,-0.49439508,-0.016055242077501194
2025-01-08 10:57:31.535980032,-0.56838953,-0.016300747426805817
2025-01-08 10:57:31.546040064,-0.5803659,-0.016549964698087893
2025-01-08 10:57:31.556061952,-0.59485817,-0.016802504873138564
2025-01-08 10:57:31.566061056,-0.65574646,-0.017057979886501286
2025-01-08 10:57:31.576065024,-0.69629467,-0.017316002939352596
2025-01-08 10:57:31.585918976,-0.73246878,-0.01757618880955868
2025-01-08 10:57:31.596121088,-0.74731058,-0.017838154157703675
2025-01-08 10:57:31.606139904,-0.75834417,-0.01810151782889054
2025-01-08 10:57:31.616008960,-0.76606876,-0.018365901150119854
2025-01-08 10:57:31.626226944,-0.73137105,-0.018630928223056942
2025-01-08 10:57:31.636152064,-0.68989182,-0.01889622621200274
2025-01-08 10:57:31.646116864,-0.68005407,-0.01916142562688844
2025-01-08 10:57:31.656207104,-0.63293207,-0.019426160601119784
2025-01-08 10:57:31.666215936,-0.58410871,-0.019690069164101688
2025-01-08 10:57:31.676003072,-0.61418974,-0.019952793508279096
2025-01-08 10:57:31.686161920,-0.60290325,-0.02021398025053595
2025-01-08 10:57:31.696082176,-0.5990566,-0.020473280687799033
2025-01-08 10:57:31.706188032,-0.62458307,-0.020730351046699517
2025-01-08 10:57:31.716204032,-0.59141493,-0.020984852727150175
2025-01-08 10:57:31.726224896,-0.55156565,-0.021236452539702636
2025-01-08 10:57:31.736217856,-0.51841706,-0.02148482293655389
2025-01-08 10:57:31.746212096,-0.48076999,-0.021729642236077998
2025-01-08 10:57:31.756069888,-0.46968997,-0.021970594840764274
2025-01-08 10:57:31.766240000,-0.4268977,-0.022207371448449153
2025-01-08 10:57:31.776230144,-0.37148148,-0.022439669256735063
2025-01-08 10:57:31.786257152,-0.33519882,-0.0226671921604955
2025-01-08 10:57:31.796487936,-0.28545022,-0.022889650942371692
2025-01-08 10:57:31.806156032,-0.2576949,-0.023106763456172175
2025-01-08 10:57:31.816102912,-0.29170555,-0.023318254803092103
2025-01-08 10:57:31.826298112,-0.29892713,-0.023523857500676502
2025-01-08 10:57:31.836424192,-0.28179359,-0.023723311644456426
2025-01-08 10:57:31.846450944,-0.32174194,-0.023916365062193884
2025-01-08 10:57:31.856308992,-0.36675996,-0.024102773460676945
2025-01-08 10:57:31.866290176,-0.37368387,-0.024282300565013168
2025-01-08 10:57:31.876212992,-0.33266717,-0.024454718250374957
2025-01-08 10:57:31.886315008,-0.28033704,-0.024619806666156957
2025-01-08 10:57:31.896398080,-0.26264125,-0.02477735435251115
2025-01-08 10:57:31.906217216,-0.22606575,-0.0249271583492322
2025-01-08 10:57:31.916197888,-0.19876802,-0.02506902429697064
2025-01-08 10:57:31.926259968,-0.21756613,-0.02520276653075805
2025-01-08 10:57:31.936371968,-0.21542549,-0.02532820816583428
2025-01-08 10:57:31.946594048,-0.18452829,-0.02544518117577228
2025-01-08 10:57:31.956366080,-0.1464721,-0.02555352646290278
2025-01-08 10:57:31.966257152,-0.11504781,-0.025653093921045693
2025-01-08 10:57:31.976270848,-0.10093921,-0.025743742490562212
2025-01-08 10:57:31.986657024,-0.10951626,-0.025825340205746016
2025-01-08 10:57:31.996453888,-0.13234162,-0.025897764234578697
2025-01-08 10:57:32.006597120,-0.11647713,-0.025960900910879565
2025-01-08 10:57:32.016385024,-0.0782941,-0.02601464575888532
2025-01-08 10:57:32.026550016,-0.02673966,-0.026058903510301237
2025-01-08 10:57:32.036453888,0.03171176,-0.026093588113870407
2025-01-08 10:57:32.046454784,0.06442487,-0.026118622737512677
2025-01-08 10:57:32.056391936,0.11241579,-0.02613393976309075
2025-01-08 10:57:32.066554112,0.16788131,-0.026139480773865593
2025-01-08 10:57:32.076549120,0.2137115,-0.02613519653470857
2025-01-08 10:57:32.086479872,0.25249916,-0.026121046965142752
2025-01-08 10:57:32.096473856,0.29759359,-0.02609700110529009
2025-01-08 10:57:32.106669056,0.35523784,-0.026063037074807054
2025-01-08 10:57:32.116431872,0.37000394,-0.026019142024895015
2025-01-08 10:57:32.126465024,0.38967443,-0.02596531208347678
2025-01-08 10:57:32.136545792,0.42530441,-0.02590155229363458
2025-01-08 10:57:32.146540032,0.43547702,-0.025827876545410283
2025-01-08 10:57:32.156527104,0.43461865,-0.025744307501071442
2025-01-08 10:57:32.166572032,0.43254304,-0.025650876513952054
2025-01-08 10:57:32.176585984,0.46721065,-0.025547623540980422
2025-01-08 10:57:32.186404096,0.512887,-0.02543459704901056
2025-01-08 10:57:32.196456960,0.54909927,-0.025311853915077155
2025-01-08 10:57:32.206862080,0.57321256,-0.025179459320698507
2025-01-08 10:57:32.216716032,0.58852005,-0.02503748664035414
2025-01-08 10:57:32.226824960,0.55294031,-0.024886017324268584
2025-01-08 10:57:32.236738048,0.50995326,-0.024725140775635278
2025-01-08 10:57:32.246753024,0.4971723,-0.024554954222417987
2025-01-08 10:57:32.256747008,0.50442445,-0.024375562583870043
2025-01-08 10:57:32.266724096,0.50574994,-0.02418707833191502
2025-01-08 10:57:32.276606208,0.47332823,-0.023989621347534743
2025-01-08 10:57:32.286758912,0.43948168,-0.023783318772313548
2025-01-08 10:57:32.296779008,0.42798084,-0.023568304855290115
2025-01-08 10:57:32.306514944,0.41991961,-0.02334472079527055
2025-01-08 10:57:32.316948992,0.37517542,-0.023112714578758825
2025-01-08 10:57:32.326724096,0.29958797,-0.02287244081366263
2025-01-08 10:57:32.336625152,0.22779876,-0.02262406055893458
2025-01-08 10:57:32.346643968,0.17773855,-0.022367741150311152
2025-01-08 10:57:32.356570112,0.14468604,-0.02210365602231254
2025-01-08 10:57:32.388950016,0.11332679,-0.02183198452666927
2025-01-08 10:57:32.388966144,0.06960642,-0.02155291174734159
2025-01-08 10:57:32.388971008,0.05244017,-0.021266628312300424
2025-01-08 10:57:32.418544896,0.08331084,-0.020973330202238457
2025-01-08 10:57:32.418606080,0.11336875,-0.020673218556382034
2025-01-08 10:57:32.418615040,0.17623407,-0.020366499475574736
2025-01-08 10:57:32.429558016,0.31319582,-0.02005338382280479
2025-01-08 10:57:32.436769024,0.38378119,-0.019734087021348476
2025-01-08 10:57:32.446622976,0.37541944,-0.019408828850703188
2025-01-08 10:57:32.456556032,0.37711382,-0.019077833240482883
2025-01-08 10:57:32.467586048,0.28989071,-0.018741328062449956
2025-01-08 10:57:32.476782080,0.16151625,-0.018399544920857307
2025-01-08 10:57:32.486651904,0.04860532,-0.018052718941274012
2025-01-08 10:57:32.496610048,-0.00535202,-0.017701088558068456
2025-01-08 10:57:32.506918912,-0.04023832,-0.017344895300721905
2025-01-08 10:57:32.517390080,-0.07138562,-0.016984383579145668
2025-01-08 10:57:32.527054080,-0.07320011,-0.016619800468173834
2025-01-08 10:57:32.536890880,0.01119143,-0.016251395491403395
2025-01-08 10:57:32.546763776,0.06946355,-0.01587942040455243
2025-01-08 10:57:32.556862208,0.09830993,-0.015504128978506528
2025-01-08 10:57:32.568742144,0.17046386,-0.015125776782222065
2025-01-08 10:57:32.576818944,0.26278323,-0.014744620965654107
2025-01-08 10:57:32.586906880,0.34990716,-0.014360920042875598
2025-01-08 10:57:32.596813824,0.40904516,-0.013974933675552649
2025-01-08 10:57:32.606878976,0.4330318,-0.013586922456939765
2025-01-08 10:57:32.627356160,0.46530008,-0.013197147696556591
2025-01-08 10:57:32.627371008,0.49461824,-0.012805871205707005
2025-01-08 10:57:32.637120000,0.50367659,-0.012413355083998368
2025-01-08 10:57:32.646894080,0.52511054,-0.012019861507018077
2025-01-08 10:57:32.656827904,0.55783588,-0.011625652515321178
2025-01-08 10:57:32.667686912,0.59111077,-0.01123098980488211
2025-01-08 10:57:32.677659136,0.59723568,-0.010836134519160188
2025-01-08 10:57:32.687192064,0.58655959,-0.010441347042926983
2025-01-08 10:57:32.697060096,0.54216582,-0.01004688679800058
2025-01-08 10:57:32.707101952,0.46930474,-0.009653012041030109
2025-01-08 10:57:32.717936896,0.38546759,-0.009259979663470481
2025-01-08 10:57:32.727107072,0.32607883,-0.008868044993885034
2025-01-08 10:57:32.737314816,0.31620234,-0.00847746160271116
2025-01-08 10:57:32.747052800,0.33631009,-0.008088481109620647
2025-01-08 10:57:32.756971008,0.36530507,-0.007701352993604008
2025-01-08 10:57:32.768033024,0.37337387,-0.007316324405905154
2025-01-08 10:57:32.776967936,0.34871393,-0.006933639985928996
2025-01-08 10:57:32.787095040,0.28094012,-0.006553541680242497
2025-01-08 10:57:32.796971008,0.19858706,-0.006176268564785501
2025-01-08 10:57:32.807013888,0.09538358,-0.005802056670405179
2025-01-08 10:57:32.817959936,-0.03420222,-0.00543113881182416
2025-01-08 10:57:32.827064064,-0.136962,-0.005063744420149104
2025-01-08 10:57:32.837244160,-0.18688017,-0.004700099379023375
2025-01-08 10:57:32.847193088,-0.19647366,-0.004340425864523715
2025-01-08 10:57:32.857278208,-0.15732777,-0.003984942188897136
2025-01-08 10:57:32.869465088,-0.07282251,-0.0036338626482311444
2025-01-08 10:57:32.877139968,-0.01083338,-0.003287397374146609
2025-01-08 10:57:32.887418880,0.01106018,-0.002945752189598672
2025-01-08 10:57:32.897202944,0.02896821,-0.002609128468867805
2025-01-08 10:57:32.907307008,0.00600433,-0.0022777230018194267
2025-01-08 10:57:32.917720064,-0.01473397,-0.0019517278625060966
2025-01-08 10:57:32.927305984,-0.0196507,-0.001631330282183654
2025-01-08 10:57:32.937403904,-0.03611422,-0.0013167125268077468
2025-01-08 10:57:32.947077888,-0.05448282,-0.0010080517790741765
2025-01-08 10:57:32.957088000,-0.08039266,-0.0007055200250623064
2025-01-08 10:57:32.969326848,-0.08286899,-0.00040928394553691984
2025-01-08 10:57:32.977416960,-0.1100471,-0.00011950481196027149
2025-01-08 10:57:32.987118080,-0.14721149,0.00016366161273786005
2025-01-08 10:57:32.997175808,-0.17811769,0.00044006516858852385
2025-01-08 10:57:33.007358976,-0.22962368,0.0007095613881698735
2025-01-08 10:57:33.017330944,-0.30539167,0.0009720115813156247
2025-01-08 10:57:33.027390976,-0.33452946,0.001227282914913164
2025-01-08 10:57:33.043632128,-0.32028866,0.0014752484877630756
2025-01-08 10:57:33.047334912,-0.30619818,0.0017157874004751301
2025-01-08 10:57:33.057426944,-0.3074469,0.0019487848203806621
2025-01-08 10:57:33.069217024,-0.28570211,0.0021741320414436086
2025-01-08 10:57:33.077392128,-0.31525236,0.0023917265391579486
2025-01-08 10:57:33.087703040,-0.31414455,0.0026014720204215968
2025-01-08 10:57:33.097406976,-0.27286595,0.002803278468381471
2025-01-08 10:57:33.107496960,-0.30327994,0.002997062182248213
2025-01-08 10:57:33.118181888,-0.36437786,0.0031827458120819167
2025-01-08 10:57:33.127403008,-0.41041195,0.0033602583885549223
2025-01-08 10:57:33.137624064,-0.46107137,0.003529535347700933
2025-01-08 10:57:33.147481088,-0.53063774,0.003690518550663143
2025-01-08 10:57:33.157517056,-0.59936857,0.0038431562984581097
2025-01-08 10:57:33.168240128,-0.62886417,0.0039874033417750965
2025-01-08 10:57:33.182588160,-0.66629356,0.004123220885834835
2025-01-08 10:57:33.194982144,-0.72712135,0.004250576590334387
2025-01-08 10:57:33.198220032,-0.74423069,0.004369444564508612
2025-01-08 10:57:33.207802112,-0.71729779,0.004479805357342106
2025-01-08 10:57:33.222053120,-0.6657269,0.004581645942968678
2025-01-08 10:57:33.227453952,-0.64921057,0.004674959701298644
2025-01-08 10:57:33.237406976,-0.67269289,0.004759746393917771
2025-01-08 10:57:33.247394048,-0.69296277,0.004836012135304343
2025-01-08 10:57:33.257651200,-0.72758847,0.004903769359414301
2025-01-08 10:57:33.267627008,-0.75031936,0.0049630367816874904
2025-01-08 10:57:33.277703936,-0.76098174,0.005013839356530665
2025-01-08 10:57:33.287671040,-0.75927955,0.0050562082303362175
2025-01-08 10:57:33.297760000,-0.74439716,0.005090180690098017
2025-01-08 10:57:33.307812096,-0.69591039,0.005115800107689209
2025-01-08 10:57:33.318622976,-0.63114059,0.005133115879868713
2025-01-08 10:57:33.327673856,-0.56125295,0.005142183364086506
2025-01-08 10:57:33.337582080,-0.45776516,0.005143063810159807
2025-01-08 10:57:33.347589888,-0.39112544,0.005135824287895366
2025-01-08 10:57:33.357613056,-0.35989362,0.005120537610735038
2025-01-08 10:57:33.368329984,-0.30663145,0.005097282255504287
2025-01-08 10:57:33.377548032,-0.21215725,0.005066142278345684
2025-01-08 10:57:33.388549120,-0.22925669,0.0050272072269217
2025-01-08 10:57:33.397635840,-0.29509068,0.004980572048972987
2025-01-08 10:57:33.407625984,-0.32583272,0.0049263369973205785
2025-01-08 10:57:33.417690112,-0.32672513,0.004864607531402514
2025-01-08 10:57:33.427682048,-0.31121308,0.004795494215437126
2025-01-08 10:57:33.437607936,-0.30217129,0.004719112613307028
2025-01-08 10:57:33.447774976,-0.30536097,0.004635583180259839
2025-01-08 10:57:33.457670912,-0.29686421,0.0045450311515229345
2025-01-08 10:57:33.467688192,-0.27164596,0.004447586427931633
2025-01-08 10:57:33.477864960,-0.25455129,0.004343383458671132
2025-01-08 10:57:33.487712000,-0.2425555,0.0042325611212345945
2025-01-08 10:57:33.497682176,-0.22124708,0.004115262598700019
2025-01-08 10:57:33.507699968,-0.18150127,0.003991635254431613
2025-01-08 10:57:33.517847040,-0.20705551,0.003861830504310373
2025-01-08 10:57:33.527847168,-0.26467121,0.0037260036866014414
2025-01-08 10:57:33.537820928,-0.28780603,0.003584313929565707
2025-01-08 10:57:33.547874816,-0.27027571,0.0034369240169247264
2025-01-08 10:57:33.557810176,-0.2421422,0.0032840002512883877
2025-01-08 10:57:33.567787776,-0.21049643,0.0031257123156557816
2025-01-08 10:57:33.577821952,-0.17982042,0.0029622331331001874
2025-01-08 10:57:33.587835904,-0.14971119,0.0027937387247502273
2025-01-08 10:57:33.597851136,-0.11878568,0.0026204080661785694
2025-01-08 10:57:33.607846912,-0.0867452,0.0024424229423115965
2025-01-08 10:57:33.617966848,-0.04593176,0.0022599678009722103
2025-01-08 10:57:33.627918848,-0.00889158,0.0020732296051693263
2025-01-08 10:57:33.637784832,0.01704443,0.0018823976842473867
2025-01-08 10:57:33.647817984,0.04920363,0.0016876635840090883
2025-01-08 10:57:33.657946112,0.07520366,0.0014892209159248731
2025-01-08 10:57:33.667877888,0.11938858,0.001287265205542746
2025-01-08 10:57:33.677926912,0.17522043,0.0010819937402113183
2025-01-08 10:57:33.687973120,0.22501379,0.0008736054162294414
2025-01-08 10:57:33.697912064,0.26869655,0.0006623005855348206
2025-01-08 10:57:33.707886080,0.32891667,0.0004482809020442774
2025-01-08 10:57:33.718162944,0.40493631,0.0002317491677573602
2025-01-08 10:57:33.727966976,0.43720126,1.290917873481213e-05
2025-01-08 10:57:33.737925120,0.43972218,-0.00020803442893751095
2025-01-08 10:57:33.747969024,0.42088288,-0.00043087633308878205
2025-01-08 10:57:33.757926912,0.41626018,-0.0006554106791984917
2025-01-08 10:57:33.768084992,0.47600365,-0.0008814312338178414
2025-01-08 10:57:33.777980160,0.53500456,-0.0011087315375698647
2025-01-08 10:57:33.787937024,0.58078295,-0.0013371050576214542
2025-01-08 10:57:33.797977088,0.60514539,-0.0015663453395212982
2025-01-08 10:57:33.807981056,0.61955369,-0.0017962461582995135
2025-01-08 10:57:33.817966848,0.61224759,-0.0020266016687250847
2025-01-08 10:57:33.828066048,0.60852766,-0.0022572065546188906
2025-01-08 10:57:33.838059776,0.63958335,-0.0024878561771213598
2025-01-08 10:57:33.848050176,0.65390313,-0.002718346721814868
2025-01-08 10:57:33.859253760,0.62728274,-0.0029484753446027416
2025-01-08 10:57:33.868099072,0.59842932,-0.0031780403162476687
2025-01-08 10:57:33.878768896,0.57272625,-0.003406841165474537
2025-01-08 10:57:33.888183040,0.522807,-0.003634678820543361
2025-01-08 10:57:33.898216960,0.46817786,-0.0038613557492005526
2025-01-08 10:57:33.908134912,0.41197979,-0.004086676096917577
2025-01-08 10:57:33.917957120,0.33619893,-0.0043104458233283165
2025-01-08 10:57:33.928078848,0.26015782,-0.004532472836777939
2025-01-08 10:57:33.938076928,0.22080868,-0.004752567126898082
2025-01-08 10:57:33.948082944,0.20198298,-0.004970540895124691
2025-01-08 10:57:33.958097920,0.1461246,-0.0051862086830772435
2025-01-08 10:57:33.968108032,0.07131249,-0.005399387498719293
2025-01-08 10:57:33.978269184,0.00984186,-0.005609896940223241
2025-01-08 10:57:33.988111104,-0.04412049,-0.005817559317463096
2025-01-08 10:57:33.998123776,-0.03058279,-0.006022199771062137
2025-01-08 10:57:34.008125952,0.05464733,-0.006223646388923663
2025-01-08 10:57:34.018148864,-0.02152449,-0.006421730320175593
2025-01-08 10:57:34.028194816,-0.02655494,-0.006616285886461579
2025-01-08 10:57:34.038135040,0.16251373,-0.0068071506905138714
2025-01-08 10:57:34.048161024,0.3405757,-0.0069941657219446205
2025-01-08 10:57:34.058224896,0.38583893,-0.0071771754601956195
2025-01-08 10:57:34.068216064,0.36402392,-0.0073560279745875845
2025-01-08 10:57:34.078205184,0.28260708,-0.007530575021413484
2025-01-08 10:57:34.088377088,0.08852416,-0.007700672138021831
2025-01-08 10:57:34.098298112,-0.05785781,-0.007866178733838684
2025-01-08 10:57:34.108244992,-0.10176176,-0.008026958178279364
2025-01-08 10:57:34.118546944,-0.12447453,-0.008182877885503217
2025-01-08 10:57:34.130144000,-0.14040744,-0.008333809395967073
2025-01-08 10:57:34.138317056,-0.11709297,-0.008479628454735691
2025-01-08 10:57:34.148293120,-0.04053444,-0.008620215086509508
2025-01-08 10:57:34.158370048,0.06989181,-0.008755453667332975
2025-01-08 10:57:34.168253952,0.18052155,-0.00888523299294841
2025-01-08 10:57:34.178298112,0.24612075,-0.009009446343763841
2025-01-08 10:57:34.188306944,0.32219905,-0.009127991546404377
2025-01-08 10:57:34.198321152,0.40968001,-0.009240771031820546
2025-01-08 10:57:34.208365824,0.47896856,-0.009347691889928195
2025-01-08 10:57:34.218348032,0.49932557,-0.009448665920758033
2025-01-08 10:57:34.228400896,0.4831,-0.009543609682094627
2025-01-08 10:57:34.238363136,0.47318953,-0.009632444533587487
2025-01-08 10:57:34.248344832,0.4831391,-0.009715096677319126
2025-01-08 10:57:34.258457856,0.49739283,-0.009791497194817818
2025-01-08 10:57:34.268398080,0.46562558,-0.009861582080504453
2025-01-08 10:57:34.278452992,0.4405582,-0.009925292271566109
2025-01-08 10:57:34.288572928,0.46369684,-0.009982573674251004
2025-01-08 10:57:34.298540032,0.47283351,-0.010033377186581744
2025-01-08 10:57:34.308515072,0.46139103,-0.010077658717486577
2025-01-08 10:57:34.318528000,0.43223685,-0.010115379202350528
2025-01-08 10:57:34.328592128,0.41574198,-0.010146504614990367
2025-01-08 10:57:34.338615808,0.39835787,-0.010171005976060389
2025-01-08 10:57:34.348578816,0.36967117,-0.010188859357897727
2025-01-08 10:57:34.358628864,0.38195735,-0.010200045885818328
2025-01-08 10:57:34.368546048,0.39788175,-0.010204551735877412
2025-01-08 10:57:34.378559232,0.40595722,-0.010202368129109879
2025-01-08 10:57:34.388668928,0.38987297,-0.010193491322268924
2025-01-08 10:57:34.398355968,0.38122606,-0.010177922595082977
2025-01-08 10:57:34.408466176,0.37721848,-0.010155668234053507
2025-01-08 10:57:34.418487040,0.35709554,-0.010126739512818247
2025-01-08 10:57:34.428560128,0.31226087,-0.010091152669106616
2025-01-08 10:57:34.438941952,0.24259144,-0.010048928878316266
2025-01-08 10:57:34.448512000,0.17833912,-0.010000094223741518
2025-01-08 10:57:34.458501120,0.12934917,-0.009944679663487058
2025-01-08 10:57:34.468839936,0.11490762,-0.009882720994101353
2025-01-08 10:57:34.478710016,0.11572361,-0.009814258810967482
2025-01-08 10:57:34.488462848,0.07992101,-0.009739338465489664
2025-01-08 10:57:34.498542080,0.02594078,-0.009658010019116946
2025-01-08 10:57:34.508734976,0.02171564,-0.00957032819424633
2025-01-08 10:57:34.518748160,0.00618631,-0.009476352322050274
2025-01-08 10:57:34.528827904,-0.02707714,-0.009376146287274829
2025-01-08 10:57:34.538588928,-0.04020035,-0.009269778470056689
2025-01-08 10:57:34.548820992,-0.05896938,-0.009157321684808784
2025-01-08 10:57:34.558681856,-0.08133137,-0.009038853116226472
2025-01-08 10:57:34.568599040,-0.07735038,-0.008914454252467199
2025-01-08 10:57:34.578674176,-0.08164984,-0.00878421081555856
2025-01-08 10:57:34.588794880,-0.10310948,-0.008648212689091397
2025-01-08 10:57:34.598535936,-0.12313366,-0.008506553843255459
2025-01-08 10:57:34.608672000,-0.13862324,-0.008359332257277563
2025-01-08 10:57:34.618663936,-0.15455121,-0.008206649839322516
2025-01-08 10:57:34.628729088,-0.1674853,-0.008048612343919627
2025-01-08 10:57:34.638701824,-0.19233346,-0.007885329286978004
2025-01-08 10:57:34.648780032,-0.27494353,-0.007716913858455631
2025-01-08 10:57:34.658785024,-0.32785946,-0.007543482832748433
2025-01-08 10:57:34.668704000,-0.34637451,-0.007365156476866572
2025-01-08 10:57:34.678756864,-0.37691134,-0.007182058456466517
2025-01-08 10:57:34.688797952,-0.39272106,-0.0069943157398086485
2025-01-08 10:57:34.698780160,-0.42445707,-0.006802058499710756
2025-01-08 10:57:34.709004032,-0.42597365,-0.006605420013569488
2025-01-08 10:57:34.718754048,-0.41055238,-0.0064045365615222165
2025-01-08 10:57:34.728807936,-0.39744413,-0.006199547322822848
2025-01-08 10:57:34.738759936,-0.43235755,-0.0059905942705063735
2025-01-08 10:57:34.748969984,-0.50081152,-0.0057778220644168566
2025-01-08 10:57:34.758765824,-0.5143429,-0.005561377942675673
2025-01-08 10:57:34.768777984,-0.53974009,-0.005341411611666022
2025-01-08 10:57:34.778830080,-0.58216321,-0.005118075134611627
2025-01-08 10:57:34.788814080,-0.5982604,-0.004891522818827666
2025-01-08 10:57:34.798800896,-0.63676661,-0.004661911101722257
2025-01-08 10:57:34.808779008,-0.72156298,-0.004429398435628117
2025-01-08 10:57:34.818871040,-0.78689611,-0.004194145171543709
2025-01-08 10:57:34.828943104,-0.79758793,-0.003956313441863939
2025-01-08 10:57:34.838880000,-0.78481847,-0.0037160670421811626
2025-01-08 10:57:34.850130176,-0.7490238,-0.003473571312236921
2025-01-08 10:57:34.858972928,-0.72880071,-0.0032289930161054892
2025-01-08 10:57:34.868890880,-0.74195051,-0.002982500221690856
2025-01-08 10:57:34.878912000,-0.75123465,-0.0027342621796179654
2025-01-08 10:57:34.888884992,-0.72880197,-0.0024844492016004227
2025-01-08 10:57:34.898940928,-0.68796265,-0.0022332325383657295
2025-01-08 10:57:34.908955136,-0.65287572,-0.001980784257220165
2025-01-08 10:57:34.918966016,-0.61702108,-0.0017272771193347339
2025-01-08 10:57:34.929105152,-0.58645797,-0.001472884456833825
2025-01-08 10:57:34.938910976,-0.5598433,-0.0012177800497678495
2025-01-08 10:57:34.948973056,-0.5191502,-0.0009621380030515435
2025-01-08 10:57:34.959014912,-0.48010844,-0.0007061326234485658
2025-01-08 10:57:34.968983808,-0.43612343,-0.0004499382966835876
2025-01-08 10:57:34.978998784,-0.38816673,-0.0001937293647619942
2025-01-08 10:57:34.989024000,-0.34057373,6.231999642220532e-05
2025-01-08 10:57:34.999036160,-0.31215763,0.00031803589911104277
2025-01-08 10:57:35.008897024,-0.28478241,0.0005732448652599867
2025-01-08 10:57:35.018904832,-0.27287084,0.0008277739475897471
2025-01-08 10:57:35.029033984,-0.30315638,0.001081450850033875
2025-01-08 10:57:35.038949888,-0.33245903,0.0013341040475046938
2025-01-08 10:57:35.048964864,-0.34312248,0.001585562904900369
2025-01-08 10:57:35.059060992,-0.32200778,0.0018356577952769258
2025-01-08 10:57:35.069842176,-0.29745454,0.002084220217109272
2025-01-08 10:57:35.079000064,-0.23952913,0.002331082910566569
2025-01-08 10:57:35.089103872,-0.21192473,0.0025760799727277323
2025-01-08 10:57:35.099323136,-0.22224325,0.002819046971663743
2025-01-08 10:57:35.109019136,-0.24567598,0.003059821059314562
2025-01-08 10:57:35.119077888,-0.26851851,0.003298241083088954
2025-01-08 10:57:35.129224960,-0.28376108,0.003534147696116843
2025-01-08 10:57:35.139084032,-0.29489934,0.003767383466084818
2025-01-08 10:57:35.149102080,-0.2789458,0.003997792982585878
2025-01-08 10:57:35.159121152,-0.23905337,0.004225222962916706
2025-01-08 10:57:35.169143040,-0.22235554,0.004449522356255499
2025-01-08 10:57:35.179120896,-0.21797729,0.00467054244615585
2025-01-08 10:57:35.189118976,-0.18585837,0.004888136951292078
2025-01-08 10:57:35.199218944,-0.15033901,0.005102162124394008
2025-01-08 10:57:35.210097152,-0.14802599,0.005312476849309079
2025-01-08 10:57:35.219425792,-0.14175433,0.005518942736132122
2025-01-08 10:57:35.229207040,-0.09820122,0.005721424214343509
2025-01-08 10:57:35.239474176,-0.04281747,0.005919788623898532
2025-01-08 10:57:35.250173184,0.0050354,0.006113906304211549
2025-01-08 10:57:35.259394816,0.02071989,0.00630365068098051
2025-01-08 10:57:35.269111040,0.04272574,0.006488898350798298
2025-01-08 10:57:35.279133184,0.07365441,0.00666952916349932
2025-01-08 10:57:35.289217024,0.10202551,0.006845426302190774
2025-01-08 10:57:35.299223808,0.14308077,0.007016476360920177
2025-01-08 10:57:35.309304832,0.21117103,0.007182569419931529
2025-01-08 10:57:35.319348224,0.25806975,0.00734359911846474
2025-01-08 10:57:35.329558016,0.28629351,0.007499462725054108
2025-01-08 10:57:35.339447040,0.34925264,0.007650061205283559
2025-01-08 10:57:35.349402880,0.43158108,0.007795299286957722
2025-01-08 10:57:35.359450112,0.47522509,0.007935085522649779
2025-01-08 10:57:35.369565952,0.4987281,0.008069332349588672
2025-01-08 10:57:35.379343872,0.50426489,0.008197956146849959
2025-01-08 10:57:35.389408000,0.51316422,0.008320877289816293
2025-01-08 10:57:35.399398144,0.52681816,0.008438020201875184
2025-01-08 10:57:35.409344000,0.54033834,0.008549313403323832
2025-01-08 10:57:35.419284992,0.54452229,0.008654689557451925
2025-01-08 10:57:35.429376000,0.5737474,0.008754085513775798
2025-01-08 10:57:35.439405056,0.58988571,0.008847442348398765
2025-01-08 10:57:35.449382144,0.5960418,0.00893470540147409
2025-01-08 10:57:35.459398144,0.61856973,0.00901582431174965
2025-01-08 10:57:35.469371136,0.63009912,0.009090753048173876
2025-01-08 10:57:35.479367936,0.63069391,0.009159449938546137
2025-01-08 10:57:35.489373952,0.61820811,0.009221877695194827
2025-01-08 10:57:35.499404032,0.59624845,0.009278003437669678
2025-01-08 10:57:35.509413120,0.57103741,0.009327798712435673
2025-01-08 10:57:35.519439872,0.52606571,0.009371239509558852
2025-01-08 10:57:35.529529088,0.46166128,0.00940830627637486
2025-01-08 10:57:35.539432960,0.37248737,0.009438983928134513
2025-01-08 10:57:35.549441024,0.24307102,0.009463261855621085
2025-01-08 10:57:35.559479040,0.131953,0.009481133929737205
2025-01-08 10:57:35.569605120,0.1002351,0.009492598503059894
2025-01-08 10:57:35.579516928,0.11785197,0.00949765840836555
2025-01-08 10:57:35.589531904,0.11780047,0.009496320954127096
2025-01-08 10:57:35.599536896,0.11875349,0.009488597916988804
2025-01-08 10:57:35.609574912,0.14182359,0.009474505531225154
2025-01-08 10:57:35.619535872,0.16619182,0.009454064475192467
2025-01-08 10:57:35.629665024,0.11089754,0.009427299854784016
2025-01-08 10:57:35.639522048,-0.00170475,0.00939424118390058
2025-01-08 10:57:35.649527040,0.02071279,0.009354922361951316
2025-01-08 10:57:35.659558144,0.12944645,0.009309381648400495
2025-01-08 10:57:35.670768896,0.26728046,0.009257661634378427
2025-01-08 10:57:35.679547904,0.35618234,0.009199809211376312
2025-01-08 10:57:35.689534976,0.31435484,0.009135875537046667
2025-01-08 10:57:35.699650048,0.19580579,0.009065915998132688
2025-01-08 10:57:35.710920192,0.02002001,0.008989990170551968
2025-01-08 10:57:35.719748864,-0.14528143,0.008908161776661544
2025-01-08 10:57:35.729595904,-0.22023958,0.00882049863973323
2025-01-08 10:57:35.739623168,-0.24362344,0.008727072635669495
2025-01-08 10:57:35.749839104,-0.24424893,0.008627959641992698
2025-01-08 10:57:35.759689984,-0.20728934,0.008523239484141206
2025-01-08 10:57:35.769596160,-0.13447469,0.008412995879108733
2025-01-08 10:57:35.779758080,-0.04621947,0.008297316376463734
2025-01-08 10:57:35.789659904,0.01260483,0.008176292296788429
2025-01-08 10:57:35.799763968,0.06698072,0.008050018667577956
2025-01-08 10:57:35.809710080,0.16387177,0.007918594156642055
2025-01-08 10:57:35.819827968,0.27558148,0.007782121003053294
2025-01-08 10:57:35.829871872,0.37738895,0.007640704945687241
2025-01-08 10:57:35.839706880,0.44545597,0.007494455149401813
2025-01-08 10:57:35.849679872,0.49993372,0.007343484128904131
2025-01-08 10:57:35.859736832,0.57650644,0.007187907670355278
2025-01-08 10:57:35.869751040,0.61691588,0.007027844750764058
2025-01-08 10:57:35.879756800,0.58511144,0.006863417455223168
2025-01-08 10:57:35.889786112,0.55365723,0.006694750892041797
2025-01-08 10:57:35.899785984,0.54550952,0.006521973105830442
2025-01-08 10:57:35.909806080,0.52577376,0.0063452149885952075
2025-01-08 10:57:35.919739904,0.46289635,0.006164610188899534
2025-01-08 10:57:35.929821952,0.40762025,0.00598029501915351
2025-01-08 10:57:35.939758080,0.37094522,0.0057924083610911585
2025-01-08 10:57:35.949825024,0.35317779,0.005601091569498041
2025-01-08 10:57:35.959831040,0.35965103,0.005406488374252283
2025-01-08 10:57:35.969846016,0.39492744,0.0052087447807435796
2025-01-08 10:57:35.980081920,0.43718302,0.005008008968735195
2025-01-08 10:57:35.989846016,0.4540748,0.0048044311897360754
2025-01-08 10:57:35.999894016,0.44711882,0.00459816366294993
2025-01-08 10:57:36.009829888,0.41137719,0.0043893604698704205
2025-01-08 10:57:36.019864064,0.40147734,0.0041781774475912
2025-01-08 10:57:36.029910016,0.41669858,0.003964772080901684
2025-01-08 10:57:36.039894016,0.42542326,0.0037493033932394213
2025-01-08 10:57:36.049902080,0.41613013,0.0035319318365711633
2025-01-08 10:57:36.059945216,0.39849281,0.0033128191802751735
2025-01-08 10:57:36.069943808,0.37504393,0.003092128399098486
2025-01-08 10:57:36.079997952,0.33595389,0.0028700235602630002
2025-01-08 10:57:36.090068992,0.29889071,0.0026466697097954957
2025-01-08 10:57:36.100034048,0.25220591,0.0024222327581564914
2025-01-08 10:57:36.109920000,0.18885309,0.0021968793652443266
2025-01-08 10:57:36.119934976,0.12479609,0.0019707768248504163
2025-01-08 10:57:36.130022144,0.06837058,0.001744092948642855
2025-01-08 10:57:36.139939072,0.03284985,0.0015169959497554689
2025-01-08 10:57:36.149976064,0.01694947,0.0012896543260598916
2025-01-08 10:57:36.160013056,0.02029276,0.0010622367431986942
2025-01-08 10:57:36.170001152,0.00348032,0.000834911917457714
2025-01-08 10:57:36.180037120,-0.00194305,0.0006078484985557801
2025-01-08 10:57:36.190115072,0.00403053,0.000381214952430749
2025-01-08 10:57:36.200103168,0.01617306,0.00015517944410010497
2025-01-08 10:57:36.210010112,0.03624308,-7.009027932476479e-05
2025-01-08 10:57:36.220016896,0.03426045,-0.00029442700539214023
2025-01-08 10:57:36.230123008,0.0032531,-0.0005176641727526036
2025-01-08 10:57:36.240207872,-0.03938884,-0.0007396359872120797
2025-01-08 10:57:36.250071040,-0.10990781,-0.0009601775373166422
2025-01-08 10:57:36.260067072,-0.1977939,-0.0011791249093912302
2025-01-08 10:57:36.272707072,-0.21431947,-0.0013963153019535455
2025-01-08 10:57:36.280150784,-0.18490982,-0.001611587139426004
2025-01-08 10:57:36.290064128,-0.15239573,-0.0018247801850675882
2025-01-08 10:57:36.300190976,-0.15349573,-0.0020357356530493285
2025-01-08 10:57:36.310662144,-0.17983407,-0.00224429631959587
2025-01-08 10:57:36.320662016,-0.21683729,-0.0024503066331177984
2025-01-08 10:57:36.331092992,-0.24406981,-0.0026536128232584194
2025-01-08 10:57:36.340483072,-0.23868519,-0.0028540630087804547
2025-01-08 10:57:36.350312960,-0.25205082,-0.003051507304217947
2025-01-08 10:57:36.360361216,-0.311674,-0.0032457979252197224
2025-01-08 10:57:36.370324992,-0.38994414,-0.0034367892925114725
2025-01-08 10:57:36.380188928,-0.46215737,-0.0036243381344041392
2025-01-08 10:57:36.390417152,-0.52509832,-0.003808303587777299
2025-01-08 10:57:36.400391168,-0.5605318,-0.003988547297467117
2025-01-08 10:57:36.410327808,-0.58702129,-0.004164933513988929
2025-01-08 10:57:36.420308224,-0.66667402,-0.00433732918952645
2025-01-08 10:57:36.430377984,-0.75382298,-0.004505604072119385
2025-01-08 10:57:36.440190976,-0.79656112,-0.004669630797983483
2025-01-08 10:57:36.450061056,-0.78594291,-0.004829284981897073
2025-01-08 10:57:36.460269824,-0.82451856,-0.004984445305590479
2025-01-08 10:57:36.470312960,-0.86246693,-0.005134993604074708
2025-01-08 10:57:36.480283136,-0.84581184,-0.005280814949848082
2025-01-08 10:57:36.490287104,-0.8427152,-0.00542179773491982
2025-01-08 10:57:36.500438016,-0.81654823,-0.005557833750592053
2025-01-08 10:57:36.510302976,-0.83604145,-0.005688818264941934
2025-01-08 10:57:36.520345088,-0.86699671,-0.005814650097947895
2025-01-08 10:57:36.530388992,-0.85457534,-0.005935231694204865
2025-01-08 10:57:36.540338944,-0.83581662,-0.006050469193175432
2025-01-08 10:57:36.550363136,-0.80499262,-0.006160272496924729
2025-01-08 10:57:36.560308992,-0.77269626,-0.006264555335289174
2025-01-08 10:57:36.570420992,-0.74532515,-0.0063632353284301104
2025-01-08 10:57:36.580361984,-0.67273378,-0.006456234046725776
2025-01-08 10:57:36.590329856,-0.58183634,-0.0065434770679559445
2025-01-08 10:57:36.600493824,-0.51933551,-0.006624894031735995
2025-01-08 10:57:36.610390016,-0.49609524,-0.006700418691158556
2025-01-08 10:57:36.620385024,-0.47193617,-0.006769988961602808
2025-01-08 10:57:36.630458112,-0.43639302,-0.006833546966673204
2025-01-08 10:57:36.640369920,-0.39844465,-0.006891039081231645
2025-01-08 10:57:36.650393088,-0.35703957,-0.006942415971488329
2025-01-08 10:57:36.660425984,-0.31005341,-0.0069876326321192065
2025-01-08 10:57:36.670403072,-0.27337915,-0.007026648420379422
2025-01-08 10:57:36.680436992,-0.24826795,-0.00705942708718432
2025-01-08 10:57:36.690400000,-0.23916978,-0.007085936805131256
2025-01-08 10:57:36.700706048,-0.25547487,-0.007106150193438196
2025-01-08 10:57:36.710509056,-0.2141766,-0.0071200443397763085
2025-01-08 10:57:36.720450048,-0.18911082,-0.0071276008189765355
2025-01-08 10:57:36.730510080,-0.22296011,-0.00712880570859152
2025-01-08 10:57:36.740493056,-0.21494216,-0.007123649601297286
2025-01-08 10:57:36.750513152,-0.17689461,-0.007112127614120309
2025-01-08 10:57:36.760531968,-0.17044288,-0.007094239394478259
2025-01-08 10:57:36.770544128,-0.20403755,-0.0070699891230248104
2025-01-08 10:57:36.780576000,-0.22941315,-0.0070393855132910585
2025-01-08 10:57:36.790568960,-0.25438797,-0.007002441808118205
2025-01-08 10:57:36.800525056,-0.2253176,-0.006959175772878513
2025-01-08 10:57:36.810445056,-0.19043487,-0.006909609685483534
2025-01-08 10:57:36.820523008,-0.17535299,-0.006853770323181299
2025-01-08 10:57:36.830574080,-0.1463328,-0.006791688946145614
2025-01-08 10:57:36.841767168,-0.11882079,-0.006723401277863878
2025-01-08 10:57:36.850568960,-0.13858509,-0.006648947482330856
2025-01-08 10:57:36.860624128,-0.17312902,-0.00656837213805946
2025-01-08 10:57:36.870587136,-0.16400546,-0.006481724208920377
2025-01-08 10:57:36.880580864,-0.17137772,-0.006389057011826067
2025-01-08 10:57:36.890598144,-0.13861912,-0.006290428181275597
2025-01-08 10:57:36.900630016,-0.09231263,-0.006185899630780087
2025-01-08 10:57:36.910740992,-0.07183629,-0.006075537511189949
2025-01-08 10:57:36.920592128,-0.03143758,-0.0059594121659479835
2025-01-08 10:57:36.930722048,0.01258999,-0.005837598083294062
2025-01-08 10:57:36.940669184,0.0322544,-0.005710173845449758
2025-01-08 10:57:36.950705920,0.0766598,-0.005577222074813297
2025-01-08 10:57:36.960724992,0.14692038,-0.005438829377197387
2025-01-08 10:57:36.970705920,0.22071022,-0.005295086282144506
2025-01-08 10:57:36.980717056,0.27911329,-0.005146087180357018
2025-01-08 10:57:36.993812992,0.31729853,-0.004991930258280504
2025-01-08 10:57:37.000845056,0.36167639,-0.0048327174298821015
2025-01-08 10:57:37.011058944,0.40559614,-0.004668554265666585
2025-01-08 10:57:37.021158912,0.44344139,-0.004499549918975856
2025-01-08 10:57:37.030801920,0.47748178,-0.004325817049619089
2025-01-08 10:57:37.040716032,0.49335408,-0.004147471744882894
2025-01-08 10:57:37.050726912,0.50857836,-0.0039646334379729005
2025-01-08 10:57:37.060691968,0.5196076,-0.003777424823940236
2025-01-08 10:57:37.070835968,0.52738136,-0.0035859717731480003
2025-01-08 10:57:37.080739072,0.54647535,-0.0033904032423351985
2025-01-08 10:57:37.090755840,0.56545627,-0.003190851183336811
2025-01-08 10:57:37.100794112,0.57265699,-0.0029874504495214197
2025-01-08 10:57:37.110800896,0.56904107,-0.002780338700008665
2025-01-08 10:57:37.120845056,0.56192064,-0.0025696563017312494
2025-01-08 10:57:37.130841856,0.56506503,-0.0023555462294075347
2025-01-08 10:57:37.140793088,0.57531261,-0.002138153963492874
2025-01-08 10:57:37.150785024,0.58444601,-0.0019176273861787987
2025-01-08 10:57:37.160816896,0.58723533,-0.0016941166755116293
2025-01-08 10:57:37.170864128,0.58076376,-0.0014677741977028305
2025-01-08 10:57:37.180910080,0.56751621,-0.0012387543977055136
2025-01-08 10:57:37.190898944,0.5511179,-0.001007213688132597
2025-01-08 10:57:37.200887040,0.53269798,-0.0007733103365937717
2025-01-08 10:57:37.210895104,0.51189172,-0.0005372043515296637
2025-01-08 10:57:37.220923904,0.49692386,-0.00029905736662282816
2025-01-08 10:57:37.231040000,0.46138763,-5.9032523866783076e-05
2025-01-08 10:57:37.240984832,0.37449098,0.00018270564462497224
2025-01-08 10:57:37.250870016,0.31183672,0.0004259913359865515
2025-01-08 10:57:37.260955136,0.28231317,0.0006706575970592106
2025-01-08 10:57:37.270899968,0.19695008,0.0009165364458578522
2025-01-08 10:57:37.280937984,0.09091306,0.001163458993957402
2025-01-08 10:57:37.290949120,0.04366535,0.0014112555697123128
2025-01-08 10:57:37.300978944,-0.05139077,0.0016597558422205842
2025-01-08 10:57:37.311027968,-0.13231456,0.0019087889459432116
2025-01-08 10:57:37.321146112,-0.11325073,0.0021581836058897604
2025-01-08 10:57:37.331134208,-0.00599885,0.0024077682632789774
2025-01-08 10:57:37.341156096,0.07661384,0.002657371201583944
2025-01-08 10:57:37.350945024,0.02605897,0.0029068206728698103
2025-01-08 10:57:37.361041152,-0.08843005,0.0031559450243320796
2025-01-08 10:57:37.371237888,-0.18179321,0.0034045728249431973
2025-01-08 10:57:37.381105920,-0.19713867,0.0036525329921141157
2025-01-08 10:57:37.391144960,-0.1676178,0.0038996549182780432
2025-01-08 10:57:37.401191936,-0.13772023,0.004145768597302936
2025-01-08 10:57:37.411191040,-0.12465972,0.004390704750639173
2025-01-08 10:57:37.421242112,-0.04909199,0.0046342949531087045
2025-01-08 10:57:37.431271168,0.05569381,0.004876371758242336
2025-01-08 10:57:37.441102080,0.14009464,0.005116768823071227
2025-01-08 10:57:37.451122944,0.21485418,0.005355321032279458
2025-01-08 10:57:37.461082880,0.27634925,0.005591864621624369
2025-01-08 10:57:37.471003904,0.32353067,0.005826237300531427
2025-01-08 10:57:37.481095936,0.36037689,0.006058278373771352
2025-01-08 10:57:37.491070976,0.38673502,0.00628782886212698
2025-01-08 10:57:37.501116160,0.41788387,0.006514731621958147
2025-01-08 10:57:37.511159040,0.43747813,0.006738831463573337
2025-01-08 10:57:37.521239040,0.45438886,0.0069599752683175845
2025-01-08 10:57:37.531490048,0.4467029,0.007178012104286596
2025-01-08 10:57:37.541145088,0.43867731,0.007392793340577647
2025-01-08 10:57:37.551140096,0.43039638,0.00760417275998953
2025-01-08 10:57:37.561153024,0.39933282,0.0078120066700832075
2025-01-08 10:57:37.571090944,0.38019544,0.00801615401251738
2025-01-08 10:57:37.581316864,0.37185752,0.008216476470573062
2025-01-08 10:57:37.591206912,0.3668341,0.008412838574782703
2025-01-08 10:57:37.600979968,0.36150664,0.008605107806581
2025-01-08 10:57:37.610950912,0.36484402,0.008793154699894857
2025-01-08 10:57:37.621081088,0.37066048,0.008976852940592103
2025-01-08 10:57:37.631127040,0.40641409,0.00915607946370956
2025-01-08 10:57:37.641148928,0.46146226,0.009330714548382258
2025-01-08 10:57:37.651213824,0.50139707,0.009500641910397706
2025-01-08 10:57:37.661276160,0.51719379,0.009665748792299957
2025-01-08 10:57:37.671254016,0.53525186,0.009825926050970338
2025-01-08 10:57:37.681261056,0.54033375,0.009981068242613285
2025-01-08 10:57:37.691196928,0.5173229,0.010131073705077182
2025-01-08 10:57:37.701255168,0.48776597,0.01027584463744223
2025-01-08 10:57:37.711293952,0.45126861,0.010415287176809123
2025-01-08 10:57:37.721296128,0.41036719,0.010549311472224158
2025-01-08 10:57:37.731496960,0.376562,0.010677831755678265
2025-01-08 10:57:37.741383168,0.36161071,0.010800766410120018
2025-01-08 10:57:37.751414016,0.33691275,0.010918038034423684
2025-01-08 10:57:37.761300992,0.29153574,0.011029573505256927
2025-01-08 10:57:37.771357952,0.21686488,0.011135304035793573
2025-01-08 10:57:37.781336064,0.1151073,0.011235165231219979
2025-01-08 10:57:37.791361024,0.03381324,0.011329097140985435
2025-01-08 10:57:37.801660160,-0.01103562,0.011417044307749648
2025-01-08 10:57:37.811450112,-0.0238812,0.011498955812982126
2025-01-08 10:57:37.821372160,0.01736861,0.011574785319171459
2025-01-08 10:57:37.831470080,0.06438237,0.01164449110860446
2025-01-08 10:57:37.841428992,0.08659929,0.011708036118677411
2025-01-08 10:57:37.851415040,0.0933488,0.011765387973705167
2025-01-08 10:57:37.861409024,0.09075058,0.011816519013195095
2025-01-08 10:57:37.871531008,0.04743344,0.0118614063165564
2025-01-08 10:57:37.881491968,-0.00661057,0.01190003172421797
2025-01-08 10:57:37.891464960,-0.04222691,0.011932381855129567
2025-01-08 10:57:37.901433856,-0.05184257,0.011958448120625511
2025-01-08 10:57:37.911448064,-0.06961828,0.011978226734631085
2025-01-08 10:57:37.921469952,-0.11457133,0.011991718720195672
2025-01-08 10:57:37.931539968,-0.15831906,0.011998929912339163
2025-01-08 10:57:37.941517056,-0.16665971,0.011999870957200641
2025-01-08 10:57:37.951795200,-0.1650607,0.011994557307481656
2025-01-08 10:57:37.961519104,-0.14995009,0.011983009214178771
2025-01-08 10:57:37.971545088,-0.14331019,0.0119652517146033
2025-01-08 10:57:37.981506048,-0.18833232,0.011941314616688587
2025-01-08 10:57:37.991514880,-0.23516512,0.011911232479588493
2025-01-08 10:57:38.001647872,-0.26261765,0.011875044590573173
2025-01-08 10:57:38.011601920,-0.30954558,0.01183279493823155
2025-01-08 10:57:38.021588992,-0.39575529,0.011784532181992352
2025-01-08 10:57:38.031663872,-0.48834145,0.011730309617978742
2025-01-08 10:57:38.041641984,-0.58596623,0.011670185141214406
2025-01-08 10:57:38.051532032,-0.64844197,0.011604221204201692
2025-01-08 10:57:38.061703936,-0.64228988,0.01153248477189542
2025-01-08 10:57:38.071675904,-0.63842684,0.011455047273098855
2025-01-08 10:57:38.082412032,-0.67514396,0.011371984548311075
2025-01-08 10:57:38.091630848,-0.69368875,0.011283376794057805
2025-01-08 10:57:38.101659904,-0.71779865,0.011189308503740895
2025-01-08 10:57:38.111880192,-0.73892218,0.011089868405043977
2025-01-08 10:57:38.122013952,-0.74594396,0.01098514939393498
2025-01-08 10:57:38.131645952,-0.70895267,0.010875248465308955
2025-01-08 10:57:38.141694976,-0.71648449,0.010760266640317047
2025-01-08 10:57:38.151671808,-0.75062966,0.010640308890430678
2025-01-08 10:57:38.161752064,-0.79247755,0.010515484058292427
2025-01-08 10:57:38.171688960,-0.82396901,0.010385904775407476
2025-01-08 10:57:38.181729024,-0.87407881,0.010251687376732961
2025-01-08 10:57:38.191708928,-0.93119437,0.010112951812224224
2025-01-08 10:57:38.201754112,-0.98050457,0.009969821555400075
2025-01-08 10:57:38.211774976,-0.96748626,0.009822423508991577
2025-01-08 10:57:38.221705984,-0.87778437,0.009670887907741382
2025-01-08 10:57:38.231708928,-0.78229278,0.009515348218422932
2025-01-08 10:57:38.241807104,-0.67876595,0.009355941037151384
2025-01-08 10:57:38.251737088,-0.57596254,0.009192805984060486
2025-01-08 10:57:38.261744128,-0.52069467,0.009026085595421734
2025-01-08 10:57:38.272656896,-0.51665348,0.008855925213284573
2025-01-08 10:57:38.281743104,-0.49553549,0.008682472872718687
2025-01-08 10:57:38.291860992,-0.47028023,0.00850587918674111
2025-01-08 10:57:38.301691904,-0.4528392,0.008326297229013431
2025-01-08 10:57:38.311682048,-0.43183398,0.008143882414396337
2025-01-08 10:57:38.321698816,-0.42779028,0.007958792377450305
2025-01-08 10:57:38.331693824,-0.41792768,0.007771186848973769
2025-01-08 10:57:38.341756160,-0.37755364,0.007581227530671071
2025-01-08 10:57:38.351675136,-0.31452239,0.007389077968045451
2025-01-08 10:57:38.361692928,-0.26661372,0.007194903421612669
2025-01-08 10:57:38.371853056,-0.2334438,0.006998870736533646
2025-01-08 10:57:38.381824000,-0.19028658,0.006801148210765227
2025-01-08 10:57:38.391810816,-0.16698235,0.00660190546183034
2025-01-08 10:57:38.401907968,-0.18363601,0.0064013132923095
2025-01-08 10:57:38.411928832,-0.21325833,0.006199543554157687
2025-01-08 10:57:38.421908992,-0.20777786,0.005996769011951166
2025-01-08 10:57:38.431898112,-0.21140492,0.005793163205170737
2025-01-08 10:57:38.442039040,-0.21585649,0.00558890030962821
2025-01-08 10:57:38.452050944,-0.20857126,0.005384154998144492
2025-01-08 10:57:38.462038016,-0.20985878,0.005179102300588494
2025-01-08 10:57:38.472099072,-0.19591206,0.004973917463386656
2025-01-08 10:57:38.481880832,-0.20401597,0.0047687758086139105
2025-01-08 10:57:38.491956992,-0.20942175,0.004563852592777455
2025-01-08 10:57:38.501768192,-0.18284446,0.004359322865405406
2025-01-08 10:57:38.511954944,-0.17914093,0.00415536132755286
2025-01-08 10:57:38.521976064,-0.16254061,0.0039521421903380444
2025-01-08 10:57:38.531898880,-0.12435734,0.0037498390336221593
2025-01-08 10:57:38.542166016,-0.07860327,0.0035486246649460394
2025-01-08 10:57:38.552015104,-0.03052014,0.003348670978837589
2025-01-08 10:57:38.562014208,-0.01913697,0.003150148816603401
2025-01-08 10:57:38.572126976,-0.02953035,0.0029532278267183913
2025-01-08 10:57:38.582007040,-0.02493358,0.0027580763259267963
2025-01-08 10:57:38.591996928,-0.00366205,0.0025648611611681156
2025-01-08 10:57:38.602031104,0.07112348,0.00237374757244059
2025-01-08 10:57:38.612029952,0.151995,0.0021848990567153075
2025-01-08 10:57:38.622066944,0.23334086,0.0019984772330124655
2025-01-08 10:57:38.632126976,0.31770164,0.0018146417087518605
2025-01-08 10:57:38.642043136,0.39776218,0.0016335499474880357
2025-01-08 10:57:38.652112896,0.45449203,0.0014553571381403544
2025-01-08 10:57:38.662137088,0.49091792,0.0012802160658271161
2025-01-08 10:57:38.672173056,0.5366559,0.0011082769844120357
2025-01-08 10:57:38.682123008,0.57068014,0.0009396874908702565
2025-01-08 10:57:38.692094208,0.59860831,0.0007745924015800987
2025-01-08 10:57:38.702436864,0.59494519,0.0006131336306449182
2025-01-08 10:57:38.712174848,0.59402817,0.0004554500703496177
2025-01-08 10:57:38.722044928,0.61481702,0.0003016774738526216
2025-01-08 10:57:38.732233984,0.64254904,0.00015194834021526766
2025-01-08 10:57:38.742082048,0.66224629,6.3918018667531725e-06
2025-01-08 10:57:38.752169984,0.66057336,-0.000134866485397422
2025-01-08 10:57:38.762140160,0.64367127,-0.0002717044497880861
2025-01-08 10:57:38.772425984,0.59813756,-0.0004040037081721639
2025-01-08 10:57:38.782264832,0.55348897,-0.0005316496679075969
2025-01-08 10:57:38.792198912,0.53924912,-0.0006545316257735548
2025-01-08 10:57:38.802309888,0.52664638,-0.0007725428639082024
2025-01-08 10:57:38.812251136,0.49388564,-0.0008855807426678608
2025-01-08 10:57:38.822181888,0.46235096,-0.0009935467903247884
2025-01-08 10:57:38.832446976,0.43924898,-0.0010963467895215915
2025-01-08 10:57:38.842272000,0.42262369,-0.0011938908604041646
2025-01-08 10:57:38.852242944,0.38233101,-0.0012860935403563665
2025-01-08 10:57:38.863492864,0.33329189,-0.0013728738602629817
2025-01-08 10:57:38.872471040,0.28239042,-0.001454155417229252
2025-01-08 10:57:38.882540032,0.18811464,-0.0015298664436890711
2025-01-08 10:57:38.892314880,0.10626966,-0.0015999398728352848
2025-01-08 10:57:38.902263040,0.04034787,-0.0016643134003097484
2025-01-08 10:57:38.912291072,-0.02607906,-0.0017229295420923799
2025-01-08 10:57:38.922302976,-0.08880353,-0.001775735688532313
2025-01-08 10:57:38.932329984,-0.12153459,-0.0018226841544666215
2025-01-08 10:57:38.942477056,-0.15125912,-0.001863732225375475
2025-01-08 10:57:38.952317952,-0.12923944,-0.0018988421995254098
2025-01-08 10:57:38.962344960,0.00790983,-0.0019279814260556578
2025-01-08 10:57:38.972400896,0.27161121,-0.0019511223389655763
2025-01-08 10:57:38.983030016,0.51097077,-0.001968242486964917
2025-01-08 10:57:38.992357888,0.57073289,-0.0019793245591505013
2025-01-08 10:57:39.002552064,0.49478805,-0.0019843564064786464
2025-01-08 10:57:39.012506880,0.40248519,-0.0019833310590030738
2025-01-08 10:57:39.022391040,0.25490373,-0.0019762467388540635
2025-01-08 10:57:39.032478208,0.09617609,-0.0019631068689362316
2025-01-08 10:57:39.042458112,-0.02004838,-0.0019439200773266998
2025-01-08 10:57:39.052457216,-0.08485341,-0.0019187001973584434
2025-01-08 10:57:39.062476032,-0.12732929,-0.0018874662633773
2025-01-08 10:57:39.072475904,-0.1608513,-0.0018502425021646098
2025-01-08 10:57:39.082480896,-0.17061692,-0.001807058320021099
2025-01-08 10:57:39.092456960,-0.15401512,-0.0017579482855106464
2025-01-08 10:57:39.102461952,-0.10852575,-0.0017029521078672353
2025-01-08 10:57:39.112525056,-0.05584502,-0.0016421146110704404
2025-01-08 10:57:39.122478080,-0.00860578,-0.0015754857036000525
2025-01-08 10:57:39.132560128,0.05166537,-0.0015031203438824936
2025-01-08 10:57:39.142535936,0.11642295,-0.0014250785014467261
2025-01-08 10:57:39.152546816,0.18269396,-0.0013414251138093771
2025-01-08 10:57:39.162583040,0.23242539,-0.0012522300391140722
2025-01-08 10:57:39.172552960,0.29580736,-0.001157568004551966
2025-01-08 10:57:39.182584064,0.3839578,-0.0010575185505954036
2025-01-08 10:57:39.192559872,0.45452535,-0.0009521659710790292
2025-01-08 10:57:39.202543872,0.50820309,-0.0008415992491672139
2025-01-08 10:57:39.212570880,0.54614925,-0.0007259119892493442
2025-01-08 10:57:39.222609920,0.56158298,-0.0006052023448087455
2025-01-08 10:57:39.232625920,0.54150182,-0.00047957294231382197
2025-01-08 10:57:39.242601984,0.50522202,-0.00034913080118406713
2025-01-08 10:57:39.252616960,0.49462724,-0.00021398724988648264
2025-01-08 10:57:39.262636032,0.46513873,-7.42578382218793e-05
2025-01-08 10:57:39.272608000,0.4284997,6.993775413694971e-05
2025-01-08 10:57:39.282628096,0.41113138,0.00021847581278866375
2025-01-08 10:57:39.292632064,0.39745724,0.0003712286873599512
2025-01-08 10:57:39.302635008,0.3976965,0.0005280648938025831
2025-01-08 10:57:39.312611072,0.41217446,0.0006888492201555741
2025-01-08 10:57:39.322721024,0.43696898,0.0008534428356937853
2025-01-08 10:57:39.332588032,0.45719498,0.0010217034033814004
2025-01-08 10:57:39.343238144,0.45554501,0.001193485195545455
2025-01-08 10:57:39.352737792,0.43743068,0.0013686392126819344
2025-01-08 10:57:39.362676992,0.41510105,0.0015470133053036945
2025-01-08 10:57:39.372697088,0.37566519,0.0017284522987371326
2025-01-08 10:57:39.382732032,0.3464492,0.001912798120771156
2025-01-08 10:57:39.392782080,0.33951187,0.0020998899320601155
2025-01-08 10:57:39.402926848,0.35537082,0.002289564259178646
2025-01-08 10:57:39.412866048,0.39960486,0.0024816551302251633
2025-01-08 10:57:39.423064832,0.43845606,0.002675994212866994
2025-01-08 10:57:39.432888064,0.42675853,0.0028724109547187842
2025-01-08 10:57:39.442900992,0.39749229,0.003070732725942704
2025-01-08 10:57:39.452855040,0.35939807,0.0032707849639574626
2025-01-08 10:57:39.462970112,0.29589504,0.0034723913201404107
2025-01-08 10:57:39.472913152,0.21711528,0.003675373808405408
2025-01-08 10:57:39.483119872,0.1451695,0.003879552955536844
2025-01-08 10:57:39.493638912,0.06770623,0.004084747953158725
2025-01-08 10:57:39.502876928,0.01655763,0.004290776811215395
2025-01-08 10:57:39.512773120,-0.0117901,0.004497456512839605
2025-01-08 10:57:39.522907904,-0.02797818,0.004704603170481168
2025-01-08 10:57:39.532860928,-0.02446955,0.004912032183168696
2025-01-08 10:57:39.542941184,-0.03869426,0.005119558394775061
2025-01-08 10:57:39.553113088,-0.0644154,0.005326996253156436
2025-01-08 10:57:39.562905088,-0.08498698,0.0055341599700329015
2025-01-08 10:57:39.572870912,-0.08091652,0.005740863681478367
2025-01-08 10:57:39.582865920,-0.10010475,0.0059469216088860015
2025-01-08 10:57:39.592876800,-0.11953533,0.006152148220274706
2025-01-08 10:57:39.603142912,-0.1393829,0.0063563583918015585
2025-01-08 10:57:39.612893952,-0.15627986,0.006559367569344447
2025-01-08 10:57:39.622937856,-0.15549403,0.0067609919300184425
2025-01-08 10:57:39.633049088,-0.13577253,0.006961048543489261
2025-01-08 10:57:39.642904064,-0.11763602,0.007159355532946946
2025-01-08 10:57:39.653035008,-0.09030396,0.007355732235602457
2025-01-08 10:57:39.662981120,-0.05957031,0.00754999936256995
2025-01-08 10:57:39.672992000,-0.08795995,0.007741979157997739
2025-01-08 10:57:39.683036160,-0.15319532,0.007931495557310679
2025-01-08 10:57:39.692995072,-0.22088492,0.008118374344427567
2025-01-08 10:57:39.704147200,-0.26638907,0.008302443307817051
2025-01-08 10:57:39.712982784,-0.33038378,0.008483532395256324
2025-01-08 10:57:39.723015168,-0.3967697,0.008661473867157453
2025-01-08 10:57:39.733084928,-0.47245681,0.008836102448327048
2025-01-08 10:57:39.743037952,-0.51854765,0.00900725547802557
2025-01-08 10:57:39.753061120,-0.54495853,0.009174773058193784
2025-01-08 10:57:39.763058944,-0.55226719,0.009338498199715122
2025-01-08 10:57:39.773058816,-0.56578213,0.009498276966583332
2025-01-08 10:57:39.783077120,-0.57516748,0.009653958617846896
2025-01-08 10:57:39.793100032,-0.62434727,0.009805395747202432
2025-01-08 10:57:39.803062016,-0.64178509,0.00995244442011134
2025-01-08 10:57:39.813307136,-0.63047624,0.01009496430831546
2025-01-08 10:57:39.823136000,-0.67738998,0.010232818821629052
2025-01-08 10:57:39.833136128,-0.74063712,0.01036587523688673
2025-01-08 10:57:39.843117056,-0.79764032,0.010494004823928668
2025-01-08 10:57:39.853179904,-0.85822737,0.010617082968506381
2025-01-08 10:57:39.863145216,-0.89641738,0.010734989291995203
2025-01-08 10:57:39.873117952,-0.90499157,0.010847607767800978
2025-01-08 10:57:39.883155200,-0.90501112,0.010954826834351603
2025-01-08 10:57:39.893104128,-0.9504205,0.011056539504566663
2025-01-08 10:57:39.903289088,-0.97154886,0.011152643471699971
2025-01-08 10:57:39.913182976,-0.89668101,0.01124304121145398
2025-01-08 10:57:39.923134976,-0.80294555,0.011327640080266687
2025-01-08 10:57:39.933227008,-0.75942487,0.011406352409675278
2025-01-08 10:57:39.943206912,-0.65164781,0.011479095596663104
2025-01-08 10:57:39.953468928,-0.58178079,0.011545792189900591
2025-01-08 10:57:39.963162880,-0.56131399,0.011606369971792424
2025-01-08 10:57:39.973181952,-0.50714266,0.011660762036248442
2025-01-08 10:57:39.983186944,-0.48567593,0.011708906862097333
2025-01-08 10:57:39.993201920,-0.46586722,0.011750748382066571
2025-01-08 10:57:40.003258880,-0.38676429,0.011786236047255332
2025-01-08 10:57:40.013452032,-0.34137869,0.011815324887030621
2025-01-08 10:57:40.023238912,-0.3781662,0.011837975564280477
2025-01-08 10:57:40.033380096,-0.37191057,0.011854154425961891
2025-01-08 10:57:40.043740160,-0.31050247,0.011863833548884919
2025-01-08 10:57:40.053300992,-0.2751627,0.01186699078067821
2025-01-08 10:57:40.063293952,-0.24739504,0.011863609775884812
2025-01-08 10:57:40.073323008,-0.17804909,0.011853680027141916
2025-01-08 10:57:40.083457024,-0.15181315,0.011837196891401005
2025-01-08 10:57:40.093543936,-0.12419301,0.011814161611150086
2025-01-08 10:57:40.103287040,-0.11906826,0.011784581330603054
2025-01-08 10:57:40.116077824,-0.13192749,0.011748469106825579
2025-01-08 10:57:40.123284992,-0.13526648,0.011705843915771385
2025-01-08 10:57:40.133199872,-0.18471444,0.011656730653206557
2025-01-08 10:57:40.143106816,-0.22207636,0.011601160130504187
2025-01-08 10:57:40.153112832,-0.22147995,0.011539169065295686
2025-01-08 10:57:40.163235840,-0.2473793,0.011470800066969607
2025-01-08 10:57:40.173314048,-0.2501514,0.011396101617013222
2025-01-08 10:57:40.183307776,-0.2347973,0.011315128044196014
2025-01-08 10:57:40.193323008,-0.22970277,0.011227939494599328
2025-01-08 10:57:40.203258880,-0.2100659,0.01113460189650037
2025-01-08 10:57:40.213512960,-0.1898368,0.011035186920123183
2025-01-08 10:57:40.223507968,-0.17743897,0.010929771932273763
2025-01-08 10:57:40.233421056,-0.17082995,0.010818439945880925
2025-01-08 10:57:40.243470848,-0.14548504,0.01070127956446883
2025-01-08 10:57:40.253335040,-0.13273728,0.01057838492159157
2025-01-08 10:57:40.263400960,-0.11618525,0.010449855615264571
2025-01-08 10:57:40.273415168,-0.0747838,0.01031579663743204
2025-01-08 10:57:40.283453952,-0.03138071,0.010176318298513955
2025-01-08 10:57:40.293476096,0.00958294,0.010031536147080498
2025-01-08 10:57:40.303528192,0.05621833,0.009881570884706271
2025-01-08 10:57:40.313470976,0.095743,0.009726548276060622
2025-01-08 10:57:40.323739904,0.12353021,0.009566599054295093
2025-01-08 10:57:40.333609984,0.15984589,0.009401858821792954
2025-01-08 10:57:40.343508992,0.20776927,0.009232467946349965
2025-01-08 10:57:40.353506048,0.24916005,0.009058571452859912
2025-01-08 10:57:40.363534848,0.29671586,0.008880318910582243
2025-01-08 10:57:40.373554944,0.35510641,0.008697864316073481
2025-01-08 10:57:40.383567104,0.40623462,0.008511365971867971
2025-01-08 10:57:40.393598976,0.44215959,0.008320986360997141
2025-01-08 10:57:40.403590912,0.45609355,0.008126892017441233
2025-01-08 10:57:40.413752064,0.46443981,0.007929253392610018
2025-01-08 10:57:40.424657152,0.48017967,0.007728244717954008
2025-01-08 10:57:40.433882112,0.4857825,0.007524043863810384
2025-01-08 10:57:40.443741184,0.52229053,0.007316832194591981
2025-01-08 10:57:40.453762048,0.57587379,0.007106794420431293
2025-01-08 10:57:40.463758848,0.59784317,0.006894118445394187
2025-01-08 10:57:40.473756928,0.62636673,0.00667899521238235
2025-01-08 10:57:40.483779840,0.64530879,0.006461618544845991
2025-01-08 10:57:40.493837056,0.62760568,0.006242184985431957
2025-01-08 10:57:40.503705088,0.60030282,0.006020893631695145
2025-01-08 10:57:40.513627904,0.57751977,0.0057979459690044016
2025-01-08 10:57:40.523598080,0.53830862,0.00557354570077686
2025-01-08 10:57:40.533679872,0.5002293,0.005347898576177295
2025-01-08 10:57:40.543659008,0.49480277,0.0051212122154221515
2025-01-08 10:57:40.553632000,0.47344941,0.00489369593282988
2025-01-08 10:57:40.564006144,0.41844225,0.004665560557762344
2025-01-08 10:57:40.573831168,0.3621577,0.004437018253603871
2025-01-08 10:57:40.583689984,0.32856846,0.004208282334926929
2025-01-08 10:57:40.593732096,0.29081637,0.003979567082995692
2025-01-08 10:57:40.603728128,0.23902768,0.0037510875597604417
2025-01-08 10:57:40.613784064,0.20191514,0.0035230594204979215
2025-01-08 10:57:40.623744000,0.17970419,0.003295698725254121
2025-01-08 10:57:40.633838848,0.18197495,0.003069221749248066
2025-01-08 10:57:40.643970048,0.20074546,0.002843844792396242
2025-01-08 10:57:40.653896192,0.21012944,0.002619783988118864
2025-01-08 10:57:40.663856128,0.22365522,0.0023972551115904847
2025-01-08 10:57:40.674100992,0.22828919,0.0021764733875980864
2025-01-08 10:57:40.683792128,0.23351741,0.001957653298171541
2025-01-08 10:57:40.693784064,0.23287719,0.001741008390151282
2025-01-08 10:57:40.705681920,0.21325415,0.0015267510828593477
2025-01-08 10:57:40.714337024,0.19155127,0.0013150924760401473
2025-01-08 10:57:40.724893184,0.135068,0.001106242158237797
2025-01-08 10:57:40.733848064,0.05167902,0.0009004080157773266
2025-01-08 10:57:40.743799040,-0.03282762,0.0006977960425166975
2025-01-08 10:57:40.753885952,-0.10198957,0.0004986101505371203
2025-01-08 10:57:40.763911936,-0.16912699,0.0003030519819385846
2025-01-08 10:57:40.773891072,-0.25072467,0.00011132072190737749
2025-01-08 10:57:40.783937024,-0.27686954,-7.638708677814138e-05
2025-01-08 10:57:40.794076928,-0.20428282,-0.0002598777276378569
2025-01-08 10:57:40.803904000,-0.11687487,-0.00043896049261117495
2025-01-08 10:57:40.813906944,-0.04482383,-0.0006134478622455152
2025-01-08 10:57:40.824194816,0.0297507,-0.0007831556837886512
2025-01-08 10:57:40.835890176,0.13755155,-0.0009479033470232971
2025-01-08 10:57:40.844244992,0.20432979,-0.0011075139576832323
2025-01-08 10:57:40.854027008,0.25812668,-0.0012618145082918736
2025-01-08 10:57:40.863975936,0.29282779,-0.0014106360462659675
2025-01-08 10:57:40.874000128,0.28092182,-0.0015538138391284137
2025-01-08 10:57:40.883964928,0.24320936,-0.001691187536676518
2025-01-08 10:57:40.894001920,0.24042654,-0.001822601329953718
2025-01-08 10:57:40.904030976,0.24189711,-0.001947904106875057
2025-01-08 10:57:40.914003968,0.23394156,-0.0020669496043591467
2025-01-08 10:57:40.924027904,0.23939544,-0.0021795965568214247
2025-01-08 10:57:40.934132224,0.27173811,-0.002285708840886395
2025-01-08 10:57:40.944111104,0.30782181,-0.002385155616179011
2025-01-08 10:57:40.954048000,0.33201438,-0.0024778114620585523
2025-01-08 10:57:40.964078848,0.34017181,-0.0025635565101605287
2025-01-08 10:57:40.974073856,0.36696798,-0.0026422765726162594
2025-01-08 10:57:40.984129024,0.38546431,-0.002713863265822005
2025-01-08 10:57:40.994120960,0.37179434,-0.002778214129633541
2025-01-08 10:57:41.004125952,0.37873125,-0.002835232741865066
2025-01-08 10:57:41.014082816,0.39108074,-0.0028848288279752156
2025-01-08 10:57:41.024104192,0.38601178,-0.0029269183658262904
2025-01-08 10:57:41.034224896,0.41616088,-0.002961423685406882
2025-01-08 10:57:41.044186112,0.45159,-0.0029882735634119196
2025-01-08 10:57:41.054162944,0.46769828,-0.003007403312577923
2025-01-08 10:57:41.064180992,0.47559333,-0.0030187548656756373
2025-01-08 10:57:41.074189824,0.47173214,-0.003022276854066325
2025-01-08 10:57:41.084208128,0.47138053,-0.0030179246807321763
2025-01-08 10:57:41.094244096,0.44473296,-0.003005660587695913
2025-01-08 10:57:41.104147968,0.39283758,-0.0029854537177487987
2025-01-08 10:57:41.114170112,0.34283727,-0.002957280170411434
2025-01-08 10:57:41.124172800,0.30804956,-0.0029211230520554497
2025-01-08 10:57:41.134272000,0.29074627,-0.0028769725201200085
2025-01-08 10:57:41.144227072,0.28805888,-0.002824825821360909
2025-01-08 10:57:41.154194176,0.3053934,-0.002764687324075523
2025-01-08 10:57:41.164238080,0.31221825,-0.0026965685442515604
2025-01-08 10:57:41.174190080,0.29777426,-0.002620488165592611
2025-01-08 10:57:41.184243968,0.25038177,-0.002536472053378628
2025-01-08 10:57:41.194451200,0.18863225,-0.0024445532621244596
2025-01-08 10:57:41.204442112,0.16194278,-0.00234477203700496
2025-01-08 10:57:41.214312960,0.15746677,-0.0022371758090200928
2025-01-08 10:57:41.224313856,0.13548195,-0.002121819183879095
2025-01-08 10:57:41.234409984,0.1291002,-0.0019987639245878336
2025-01-08 10:57:41.244252928,0.16412926,-0.00186807892772881
2025-01-08 10:57:41.254381824,0.18182898,-0.0017298401934288201
2025-01-08 10:57:41.264313088,0.18116176,-0.0015841307890144946
2025-01-08 10:57:41.274797056,0.17523873,-0.0014310408063615205
2025-01-08 10:57:41.284642816,0.13900542,-0.0012706673129486091
2025-01-08 10:57:41.294524928,0.09598613,-0.0011031142966330398
2025-01-08 10:57:41.304350976,0.05990589,-0.0009284926041694578
2025-01-08 10:57:41.314299136,0.02344257,-0.0007469198734998897
2025-01-08 10:57:41.324402176,0.00520855,-0.0005585204598476806
2025-01-08 10:57:41.334429952,-0.00597507,-0.000363425355653948
2025-01-08 10:57:41.344457984,-0.05754793,-0.0001617721044002978
2025-01-08 10:57:41.354501120,-0.08122808,4.6295291632688535e-05
2025-01-08 10:57:41.364447232,-0.0899784,0.0002606264696166926
2025-01-08 10:57:41.374445056,-0.1125719,0.00048106481037634693
2025-01-08 10:57:41.384471808,-0.09660536,0.0007074475484740445
2025-01-08 10:57:41.394448128,-0.07059443,0.0009396058881079398
2025-01-08 10:57:41.404510976,-0.08617926,0.0011773651247472777
2025-01-08 10:57:41.414278912,-0.09356266,0.0014205447724236963
2025-01-08 10:57:41.424493056,-0.07668209,0.0016689586965918644
2025-01-08 10:57:41.434643968,-0.09910399,0.0019224152524681575
2025-01-08 10:57:41.444630016,-0.14533681,0.0021807174287504145
2025-01-08 10:57:41.454635008,-0.19277954,0.002443662996617171
2025-01-08 10:57:41.464617984,-0.28495383,0.0027110446638998077
2025-01-08 10:57:41.474626048,-0.40892017,0.0029826502343158834
2025-01-08 10:57:41.484648960,-0.53096282,0.0032582627716475406
2025-01-08 10:57:41.494575872,-0.62493509,0.003537660768743755
2025-01-08 10:57:41.504612864,-0.66724467,0.003820618321220889
2025-01-08 10:57:41.514572032,-0.58213669,0.004106905305731108
2025-01-08 10:57:41.524581888,-0.50982946,0.004396287562664235
2025-01-08 10:57:41.534849024,-0.50877988,0.004688527083143661
2025-01-08 10:57:41.544460032,-0.4663853,0.004983382200173324
2025-01-08 10:57:41.554921984,-0.46660155,0.005280607783787953
2025-01-08 10:57:41.564583168,-0.56767166,0.0055799554400553664
2025-01-08 10:57:41.574650112,-0.64590043,0.0058811737137750425
2025-01-08 10:57:41.584577024,-0.69952565,0.006184008294714084
2025-01-08 10:57:41.594594048,-0.78073037,0.006488202227217201
2025-01-08 10:57:41.604617984,-0.85772145,0.0067934961230244305
2025-01-08 10:57:41.614594816,-0.8824352,0.007099628377126583
2025-01-08 10:57:41.624610048,-0.90908873,0.007406335386484971
2025-01-08 10:57:41.634684160,-0.88873476,0.007713351771439126
2025-01-08 10:57:41.644622080,-0.86748725,0.008020410599622843
2025-01-08 10:57:41.654942976,-0.86772317,0.0083272436122062
2025-01-08 10:57:41.664716032,-0.81998605,0.008633581452278325
2025-01-08 10:57:41.674674944,-0.70955223,0.00893915389518317
2025-01-08 10:57:41.684689152,-0.66578066,0.009243690080617963
2025-01-08 10:57:41.694664960,-0.65428138,0.009546918746301874
2025-01-08 10:57:41.704664832,-0.67153716,0.009848568463020079
2025-01-08 10:57:41.714689024,-0.68069726,0.010148367870846518
2025-01-08 10:57:41.724733184,-0.62342143,0.010446045916346897
2025-01-08 10:57:41.734833920,-0.56455272,0.010741332090561535
2025-01-08 10:57:41.744758016,-0.53109574,0.011033956667566428
2025-01-08 10:57:41.754700800,-0.45814711,0.011323650943409414
2025-01-08 10:57:41.764834048,-0.37186217,0.011610147475217172
2025-01-08 10:57:41.774772992,-0.32112855,0.011893180320267708
2025-01-08 10:57:41.784709888,-0.32557827,0.012172485274822273
2025-01-08 10:57:41.796614912,-0.28032589,0.012447800112510031
2025-01-08 10:57:41.804908032,-0.25760186,0.012718864822057833
2025-01-08 10:57:41.814870016,-0.26203823,0.012985421844158056
2025-01-08 10:57:41.824893952,-0.21862465,0.013247216307266168
2025-01-08 10:57:41.834855936,-0.20473874,0.013503996262120793
2025-01-08 10:57:41.844819968,-0.21269375,0.01375551291477852
2025-01-08 10:57:41.854806784,-0.22487181,0.01400152085795635
2025-01-08 10:57:41.864839936,-0.24088001,0.014241778300475471
2025-01-08 10:57:41.874802944,-0.22123617,0.014476047294600187
2025-01-08 10:57:41.884877824,-0.2109459,0.014704093961067487
2025-01-08 10:57:41.895795968,-0.21489835,0.014925688711603323
2025-01-08 10:57:41.905404160,-0.20993203,0.015140606468723039
2025-01-08 10:57:41.915194112,-0.18452752,0.015348626882615025
2025-01-08 10:57:41.925026048,-0.19221705,0.01554953454490826
2025-01-08 10:57:41.934849024,-0.20751786,0.015743119199126
2025-01-08 10:57:41.944948992,-0.22765106,0.015929175947630096
2025-01-08 10:57:41.954998016,-0.23666495,0.016107505454862454
2025-01-08 10:57:41.965099008,-0.21200877,0.01627791414669275
2025-01-08 10:57:41.974916864,-0.19075215,0.016440214405683447
2025-01-08 10:57:41.984957952,-0.18553323,0.01659422476208665
2025-01-08 10:57:41.994982912,-0.16199756,0.016739770080389238
2025-01-08 10:57:42.004921856,-0.15763736,0.016876681741226852
2025-01-08 10:57:42.014971136,-0.16155994,0.01700479781848921
2025-01-08 10:57:42.024883968,-0.13832945,0.017123963251443802
2025-01-08 10:57:42.034936064,-0.09451962,0.017234030011707716
2025-01-08 10:57:42.044968960,-0.0545544,0.01733485726490123
2025-01-08 10:57:42.054968064,-0.0190168,0.01742631152682087
2025-01-08 10:57:42.065004032,0.01142257,0.01750826681397317
2025-01-08 10:57:42.074999040,0.04449427,0.01758060478831507
2025-01-08 10:57:42.084996096,0.10800272,0.017643214896050367
2025-01-08 10:57:42.095032064,0.16900748,0.017695994500337237
2025-01-08 10:57:42.105001984,0.20285261,0.017738849007764956
2025-01-08 10:57:42.115037952,0.24293792,0.01777169198846405
2025-01-08 10:57:42.125072896,0.31299001,0.017794445289717957
2025-01-08 10:57:42.135117056,0.36656255,0.01780703914294981
2025-01-08 10:57:42.145030912,0.41652983,0.017809412263962838
2025-01-08 10:57:42.155048960,0.44557065,0.017801511946318013
2025-01-08 10:57:42.165085184,0.4538604,0.017783294147738347
2025-01-08 10:57:42.175102976,0.47295487,0.017754723569434284
2025-01-08 10:57:42.185039872,0.47266769,0.017715773728250166
2025-01-08 10:57:42.195126016,0.48262608,0.01766642702153809
2025-01-08 10:57:42.205144832,0.53891665,0.017606674784670342
2025-01-08 10:57:42.215158016,0.58728486,0.01753651734110836
2025-01-08 10:57:42.225114112,0.60784215,0.017455964044951523
2025-01-08 10:57:42.235275008,0.62686974,0.01736503331589553
2025-01-08 10:57:42.245136896,0.62964976,0.017263752666536108
2025-01-08 10:57:42.255276800,0.6167767,0.017152158721960103
2025-01-08 10:57:42.265212160,0.59757084,0.01703029723157244
2025-01-08 10:57:42.275275008,0.58235806,0.016898223073113523
2025-01-08 10:57:42.285377024,0.5394696,0.01675600024882847
2025-01-08 10:57:42.295181056,0.51178026,0.016603701873755896
2025-01-08 10:57:42.305222912,0.4995507,0.01644141015611055
2025-01-08 10:57:42.315202048,0.4652521,0.016269216369740793
2025-01-08 10:57:42.325270016,0.40973997,0.016087220818648516
2025-01-08 10:57:42.335292160,0.37029058,0.015895532793565894
2025-01-08 10:57:42.345214976,0.3433215,0.015694270520590026
2025-01-08 10:57:42.355216128,0.2817018,0.015483561101883378
2025-01-08 10:57:42.365276160,0.21093845,0.015263540448454562
2025-01-08 10:57:42.375660032,0.1759764,0.015034353205041108
2025-01-08 10:57:42.386377216,0.15415293,0.01479615266712235
2025-01-08 10:57:42.395347968,0.10997564,0.014549100690097759
2025-01-08 10:57:42.405353984,0.06620336,0.014293367590672335
2025-01-08 10:57:42.415291136,0.12401128,0.014029132040498353
2025-01-08 10:57:42.427395072,0.14903009,0.013756580952128483
2025-01-08 10:57:42.435298048,0.04800177,0.013475909357343115
2025-01-08 10:57:42.445430016,0.10690862,0.01318732027792088
2025-01-08 10:57:42.455395072,0.29750919,0.012891024588928188
2025-01-08 10:57:42.465447936,0.37773424,0.012587240874610568
2025-01-08 10:57:42.475441920,0.37831843,0.012276195276974945
2025-01-08 10:57:42.485470976,0.39797902,0.011958121337158715
2025-01-08 10:57:42.495471104,0.30585802,0.01163325982968831
2025-01-08 10:57:42.505475072,0.13415903,0.011301858589735961
2025-01-08 10:57:42.515474944,-0.00799441,0.010964172333490218
2025-01-08 10:57:42.525460992,-0.16781366,0.010620462471761936
2025-01-08 10:57:42.535563008,-0.27691275,0.01027099691695387
2025-01-08 10:57:42.545286912,-0.32390451,0.009916049883528226
2025-01-08 10:57:42.555422976,-0.31760496,0.009555901682112492
2025-01-08 10:57:42.566905856,-0.2686758,0.00919083850739012
2025-01-08 10:57:42.575636992,-0.17818362,0.008821152219928479
2025-01-08 10:57:42.585490944,-0.09714973,0.008447140122102308
2025-01-08 10:57:42.595554048,-0.01829016,0.0080691047282767
2025-01-08 10:57:42.605415168,0.07270932,0.007687353529419229
2025-01-08 10:57:42.615417856,0.15918624,0.007302198752316317
2025-01-08 10:57:42.625485056,0.24778408,0.006913957113574383
2025-01-08 10:57:42.635627008,0.31218934,0.006522949568591495
2025-01-08 10:57:42.645515008,0.34494168,0.0061295010556902665
2025-01-08 10:57:42.655988992,0.3604489,0.005733940235608128
2025-01-08 10:57:42.665484800,0.39174902,0.0053365992265451915
2025-01-08 10:57:42.675493888,0.42489773,0.004937813334975593
2025-01-08 10:57:42.685571840,0.43428129,0.004537920782431572
2025-01-08 10:57:42.695521024,0.42967498,0.0041372624284751695
2025-01-08 10:57:42.705372928,0.42621809,0.0037361814900754822
2025-01-08 10:57:42.715554048,0.41471422,0.003335023257614221
2025-01-08 10:57:42.725445888,0.39168012,0.002934134807746014
2025-01-08 10:57:42.735595008,0.36169744,0.0025338647133434063
2025-01-08 10:57:42.745444096,0.3280102,0.002134562750760168
2025-01-08 10:57:42.755443200,0.29980481,0.0017365796046498831
2025-01-08 10:57:42.765659136,0.29744613,0.0013402665705799927
2025-01-08 10:57:42.775644160,0.30606049,0.0009459752556843341
2025-01-08 10:57:42.785607936,0.31373411,0.0005540572775999103
2025-01-08 10:57:42.795723008,0.33539844,0.00016486396193658096
2025-01-08 10:57:42.805604864,0.36937892,-0.00022125396146982092
2025-01-08 10:57:42.815586048,0.37947047,-0.0006039466632676976
2025-01-08 10:57:42.825659904,0.3806228,-0.0009828655200082206
2025-01-08 10:57:42.835716096,0.38718808,-0.0013576634200156543
2025-01-08 10:57:42.845652992,0.38217622,-0.0017279950694510135
2025-01-08 10:57:42.855695872,0.39046597,-0.0020935172983091847
2025-01-08 10:57:42.865665024,0.41826522,-0.0024538893660891303
2025-01-08 10:57:42.875705856,0.43602681,-0.0028087732668748496
2025-01-08 10:57:42.885806080,0.41512889,-0.003157834033565246
2025-01-08 10:57:42.895755008,0.39641666,-0.0035007400409893903
2025-01-08 10:57:42.905797120,0.35846001,-0.0038371633076442605
2025-01-08 10:57:42.915715072,0.35256034,-0.004166779795791602
2025-01-08 10:57:42.925709056,0.34356022,-0.004489269709650742
2025-01-08 10:57:42.935798016,0.34386003,-0.0048043177914245975
2025-01-08 10:57:42.945693952,0.34380352,-0.0051116136148968705
2025-01-08 10:57:42.955742976,0.33145052,-0.005410851876338844
2025-01-08 10:57:42.965786880,0.31062979,-0.0057017326824660534
2025-01-08 10:57:42.975805952,0.26739508,-0.00598396183518519
2025-01-08 10:57:42.985814016,0.22057945,-0.0062572511128744495
2025-01-08 10:57:42.995796992,0.18998677,-0.006521318547941079
2025-01-08 10:57:43.005868800,0.18559414,-0.006775888700402638
2025-01-08 10:57:43.015769856,0.2167632,-0.0070206929272402085
2025-01-08 10:57:43.025767168,0.21199256,-0.007255469647274419
2025-01-08 10:57:43.035856896,0.15723997,-0.007479964601317666
2025-01-08 10:57:43.045814016,0.10036886,-0.007693931107358626
2025-01-08 10:57:43.055821056,0.04135692,-0.007897130310538476
2025-01-08 10:57:43.065828096,-0.03475875,-0.00808933142768133
2025-01-08 10:57:43.075883008,-0.06948793,-0.00827031198614476
2025-01-08 10:57:43.085844992,-0.05806023,-0.008439858056760252
2025-01-08 10:57:43.096000000,-0.03318894,-0.00859776448063717
2025-01-08 10:57:43.105925120,0.00569057,-0.008743835089607736
2025-01-08 10:57:43.115869952,0.02256942,-0.008877882920095292
2025-01-08 10:57:43.125922048,-0.03020591,-0.008999730420192269
2025-01-08 10:57:43.135942912,-0.0950917,-0.00910920964973896
2025-01-08 10:57:43.145896960,-0.14082688,-0.009206162473199431
2025-01-08 10:57:43.155905024,-0.14060944,-0.00929044074513567
2025-01-08 10:57:43.166043904,-0.13626313,-0.009361906488086597
2025-01-08 10:57:43.175964160,-0.16093332,-0.009420432062663874
2025-01-08 10:57:43.185984000,-0.15730882,-0.00946590032968221
2025-01-08 10:57:43.195938048,-0.18021655,-0.009498204804147611
2025-01-08 10:57:43.205869056,-0.22992986,-0.009517249800933191
2025-01-08 10:57:43.216017920,-0.22914869,-0.00952295057197811
2025-01-08 10:57:43.226032128,-0.21163338,-0.00951523343485179
2025-01-08 10:57:43.235907072,-0.21456814,-0.009494035892531748
2025-01-08 10:57:43.245893120,-0.28752035,-0.0094593067442506
2025-01-08 10:57:43.256016128,-0.35719001,-0.009411006187273845
2025-01-08 10:57:43.266066944,-0.39233679,-0.0093491059094778
2025-01-08 10:57:43.275859200,-0.46602207,-0.009273589172603373
2025-01-08 10:57:43.285979136,-0.54636329,-0.009184450886069367
2025-01-08 10:57:43.295988992,-0.60279298,-0.009081697671235745
2025-01-08 10:57:43.305852928,-0.65671927,-0.008965347916015096
2025-01-08 10:57:43.315908864,-0.69224918,-0.00883543181973811
2025-01-08 10:57:43.325916928,-0.69742101,-0.008691991428186722
2025-01-08 10:57:43.335944960,-0.6872229,-0.008535080658715947
2025-01-08 10:57:43.346002176,-0.67781436,-0.008364765315393919
2025-01-08 10:57:43.355959808,-0.68566221,-0.008181123094097416
2025-01-08 10:57:43.365954048,-0.69103646,-0.007984243577508323
2025-01-08 10:57:43.376014080,-0.70196509,-0.00777422821996449
2025-01-08 10:57:43.386061056,-0.71249235,-0.007551190322127176
2025-01-08 10:57:43.396002048,-0.73817921,-0.007315254995434997
2025-01-08 10:57:43.406127872,-0.75738627,-0.0070665591163234336
2025-01-08 10:57:43.416169984,-0.78365248,-0.00680525127019663
2025-01-08 10:57:43.426184960,-0.83888298,-0.006531491685147389
2025-01-08 10:57:43.436183808,-0.86038953,-0.006245452155429502
2025-01-08 10:57:43.446142976,-0.87415689,-0.0059473159546952386
2025-01-08 10:57:43.456219904,-0.87720847,-0.005637277739019287
2025-01-08 10:57:43.466317056,-0.83054256,-0.005315543439739343
2025-01-08 10:57:43.476322048,-0.77214915,-0.004982330146152196
2025-01-08 10:57:43.486345984,-0.7166059,-0.004637865978112308
2025-01-08 10:57:43.496313088,-0.63625139,-0.0042823899485893374
2025-01-08 10:57:43.506799872,-0.53352034,-0.003916151816249298
2025-01-08 10:57:43.516446208,-0.45964164,-0.0035394119281323636
2025-01-08 10:57:43.526334976,-0.41895431,-0.0031524410525097884
2025-01-08 10:57:43.536382976,-0.38325065,-0.002755520202010332
2025-01-08 10:57:43.546287104,-0.37651581,-0.0023489404471152453
2025-01-08 10:57:43.556230912,-0.34838837,-0.001933002720129648
2025-01-08 10:57:43.566185984,-0.28913313,-0.0015080176097466236
2025-01-08 10:57:43.576199936,-0.26997727,-0.001074305146328075
2025-01-08 10:57:43.586289920,-0.27990019,-0.0006321945780358183
2025-01-08 10:57:43.596257024,-0.24887055,-0.0001820241379538648
2025-01-08 10:57:43.606347008,-0.24189579,0.00027585919764880974
2025-01-08 10:57:43.616389120,-0.23525107,0.0007410999597572254
2025-01-08 10:57:43.626436864,-0.18924034,0.0012133344455857963
2025-01-08 10:57:43.636393984,-0.11960614,0.001692190985916596
2025-01-08 10:57:43.648274944,-0.08465707,0.0021772902206192582
2025-01-08 10:57:43.656420864,-0.09423804,0.002668245382163521
2025-01-08 10:57:43.666277888,-0.1374079,0.0031646625869277494
2025-01-08 10:57:43.676342016,-0.20281029,0.003666141134099905
2025-01-08 10:57:43.686393856,-0.26697981,0.004172273811958773
2025-01-08 10:57:43.696713984,-0.28512621,0.004682647211317884
2025-01-08 10:57:43.706394880,-0.26936787,0.005196842045906013
2025-01-08 10:57:43.716495872,-0.23388374,0.005714433479451908
2025-01-08 10:57:43.726455808,-0.18316597,0.006234991459234354
2025-01-08 10:57:43.736525056,-0.15264624,0.006758081055851663
2025-01-08 10:57:43.746489088,-0.13621312,0.00728326280895861
2025-01-08 10:57:43.756414976,-0.13282269,0.007810093078712565
2025-01-08 10:57:43.766449920,-0.13352424,0.008338124402664468
2025-01-08 10:57:43.776498944,-0.12602496,0.008866905857824669
2025-01-08 10:57:43.786499072,-0.11258495,0.009395983427627624
2025-01-08 10:57:43.796519168,-0.10611337,0.00992490037351472
2025-01-08 10:57:43.806468864,-0.11229545,0.010453197610848295
2025-01-08 10:57:43.816473856,-0.10647935,0.010980414088865792
2025-01-08 10:57:43.826707968,-0.11702389,0.011506087174377753
2025-01-08 10:57:43.836633088,-0.11918163,0.01202975303890892
2025-01-08 10:57:43.846681088,-0.08543569,0.012550947048976921
2025-01-08 10:57:43.856556800,-0.04272348,0.013069204159200015
2025-01-08 10:57:43.866557952,-0.00935918,0.013584059307919899
2025-01-08 10:57:43.876523008,0.02686876,0.014095047815023548
2025-01-08 10:57:43.886522112,0.0773564,0.014601705781643305
2025-01-08 10:57:43.896531968,0.1547581,0.015103570491412248
2025-01-08 10:57:43.906569984,0.24319971,0.015600180812948368
2025-01-08 10:57:43.916589056,0.29298693,0.016091077603238794
2025-01-08 10:57:43.926492928,0.33327836,0.01657580411159264
2025-01-08 10:57:43.936724992,0.35993713,0.017053906383829222
2025-01-08 10:57:43.946643200,0.37187195,0.01752493366636596
2025-01-08 10:57:43.956572928,0.38817608,0.017988438809869806
2025-01-08 10:57:43.966625024,0.42868328,0.018443978672132936
2025-01-08 10:57:43.976655104,0.48694462,0.01889111451983438
2025-01-08 10:57:43.986636032,0.52877945,0.019329412428846938
2025-01-08 10:57:43.996668160,0.58117914,0.019758443682748816
2025-01-08 10:57:44.006689024,0.6628477,0.02017778516919943
2025-01-08 10:57:44.016622080,0.71689796,0.0205870197738383
2025-01-08 10:57:44.026670080,0.73945951,0.020985736771366566
2025-01-08 10:57:44.036980992,0.7672649,0.021373532213471408
2025-01-08 10:57:44.046685952,0.78581345,0.021750009313254236
2025-01-08 10:57:44.056668160,0.80642068,0.022114778825824764
2025-01-08 10:57:44.066711808,0.78897077,0.02246745942472462
2025-01-08 10:57:44.076674048,0.72583425,0.022807678073845875
2025-01-08 10:57:44.086729984,0.64697999,0.023135070394511632
2025-01-08 10:57:44.096764160,0.56546479,0.02344928102738838
2025-01-08 10:57:44.106759936,0.47397721,0.02374996398890235
2025-01-08 10:57:44.116754944,0.35254997,0.024036783021834787
2025-01-08 10:57:44.126907136,0.25710201,0.024309411939774202
2025-01-08 10:57:44.136878080,0.22229517,0.024567534965107305
2025-01-08 10:57:44.146761984,0.19249487,0.024810847060233815
2025-01-08 10:57:44.156752128,0.12929606,0.02503905425169415
2025-01-08 10:57:44.166795008,0.07459033,0.02525187394690361
2025-01-08 10:57:44.176887040,0.07501954,0.025449035243190678
2025-01-08 10:57:44.186852096,0.09518814,0.025630279228842243
2025-01-08 10:57:44.196818944,0.04603428,0.025795359275863468
2025-01-08 10:57:44.206856960,0.00417846,0.025944041324165012
2025-01-08 10:57:44.216808960,0.2010476,0.0260761041568963
2025-01-08 10:57:44.226821888,0.08037043,0.026191339666648876
2025-01-08 10:57:44.236780800,-0.1150232,0.026289553112260656
2025-01-08 10:57:44.246833920,0.17127895,0.02637056336595703
2025-01-08 10:57:44.256800000,0.46945274,0.02643420315057265
2025-01-08 10:57:44.266982912,0.57017094,0.02648031926660324
2025-01-08 10:57:44.276890112,0.42526436,0.02650877280884499
2025-01-08 10:57:44.286972160,0.24902821,0.026519439372385177
2025-01-08 10:57:44.296880128,0.03767937,0.026512209247716155
2025-01-08 10:57:44.306868992,-0.23168808,0.02648698760475176
2025-01-08 10:57:44.316914176,-0.43948907,0.026443694665533524
2025-01-08 10:57:44.326936064,-0.47084272,0.02638226586542224
2025-01-08 10:57:44.336832000,-0.45024997,0.026302652002578194
2025-01-08 10:57:44.346916864,-0.36750031,0.026204819375542646
2025-01-08 10:57:44.356918016,-0.23730993,0.02608874990874151
2025-01-08 10:57:44.366967040,-0.07616967,0.02595444126574069
2025-01-08 10:57:44.376993792,0.03515965,0.025801906950092338
2025-01-08 10:57:44.387269120,0.10952288,0.025631176393620135
2025-01-08 10:57:44.397142016,0.17967057,0.025442295032001
2025-01-08 10:57:44.406982912,0.28482056,0.025235324367510536
2025-01-08 10:57:44.416860160,0.40933233,0.025010342018809088
2025-01-08 10:57:44.426947072,0.45461673,0.024767441757654867
2025-01-08 10:57:44.437025024,0.45072341,0.02450673353244144
2025-01-08 10:57:44.446962944,0.46743113,0.02422834347846605
2025-01-08 10:57:44.456905984,0.50158924,0.02393241391484601
2025-01-08 10:57:44.467046144,0.46949917,0.02361910332801079
2025-01-08 10:57:44.477273088,0.43707472,0.023288586341707863
2025-01-08 10:57:44.487536896,0.40102863,0.022941053673470827
2025-01-08 10:57:44.497140992,0.36805356,0.022576712077509175
2025-01-08 10:57:44.507266048,0.34099817,0.02219578427398965
2025-01-08 10:57:44.517185024,0.30069804,0.02179850886469032
2025-01-08 10:57:44.527200000,0.25195181,0.021385140235018984
2025-01-08 10:57:44.537267968,0.23376894,0.020955948442398606
2025-01-08 10:57:44.547294976,0.22305799,0.02051121909103385
2025-01-08 10:57:44.557180928,0.22792709,0.020051253193083252
2025-01-08 10:57:44.567158016,0.27419996,0.01957636701627302
2025-01-08 10:57:44.577230848,0.3079375,0.0190868919179997
2025-01-08 10:57:44.587132928,0.34755528,0.018583174165979342
2025-01-08 10:57:44.597024000,0.40887165,0.018065574745513208
2025-01-08 10:57:44.607238912,0.48399144,0.017534469153449667
2025-01-08 10:57:44.617230848,0.52977353,0.016990247178934152
2025-01-08 10:57:44.627234048,0.57006478,0.016433312671049912
2025-01-08 10:57:44.637286912,0.58429855,0.01586408329346306
2025-01-08 10:57:44.647713792,0.56930274,0.01528299026619657
2025-01-08 10:57:44.657179136,0.54991645,0.014690478094668984
2025-01-08 10:57:44.667228928,0.53706336,0.01408700428614466
2025-01-08 10:57:44.677238016,0.53972775,0.013473039053752595
2025-01-08 10:57:44.687298048,0.51241958,0.012849065008242464
2025-01-08 10:57:44.697262080,0.45442587,0.012215576837656469
2025-01-08 10:57:44.707282944,0.40887582,0.011573080975107038
2025-01-08 10:57:44.717228032,0.36592931,0.010922095254859845
2025-01-08 10:57:44.727236864,0.3034901,0.010263148556933227
2025-01-08 10:57:44.737293056,0.24168313,0.009596780440434164
2025-01-08 10:57:44.747447040,0.19236559,0.008923540765862149
2025-01-08 10:57:44.757300992,0.16427052,0.00824398930662166
2025-01-08 10:57:44.767258880,0.16249317,0.007558695349993962
2025-01-08 10:57:44.777317888,0.16157663,0.006868237287828937
2025-01-08 10:57:44.787309824,0.16797119,0.0061732021972267966
2025-01-08 10:57:44.797283840,0.14881647,0.005474185411489095
2025-01-08 10:57:44.807315968,0.09275103,0.004771790081628094
2025-01-08 10:57:44.817362944,0.06150651,0.004066626728731502
2025-01-08 10:57:44.827330048,0.01893818,0.0033593127874895425
2025-01-08 10:57:44.837394944,-0.02634913,0.002650472141199548
2025-01-08 10:57:44.847325184,-0.05123943,0.0019407346485711557
2025-01-08 10:57:44.857372160,-0.04174924,0.001230735662664425
2025-01-08 10:57:44.867386112,-0.01797116,0.000521115542300093
2025-01-08 10:57:44.880064000,0.00291461,-0.00018748084371010605
2025-01-08 10:57:44.887366144,0.00187474,-0.0008944046191583274
2025-01-08 10:57:44.897300992,-0.02872169,-0.0015990034094986085
2025-01-08 10:57:44.907289088,-0.06534559,-0.00230062185699829
2025-01-08 10:57:44.917392128,-0.12999207,-0.0029986021416071114
2025-01-08 10:57:44.927785984,-0.19911104,-0.0036922845071616296
2025-01-08 10:57:44.937815040,-0.24600363,-0.0043810077925359545
2025-01-08 10:57:44.947568896,-0.3035875,-0.005064109967344294
2025-01-08 10:57:44.957500928,-0.35187048,-0.005740928671795152
2025-01-08 10:57:44.967457024,-0.35069829,-0.006410801760291182
2025-01-08 10:57:44.977440000,-0.32026249,-0.007073067848364397
2025-01-08 10:57:44.987468032,-0.28859591,-0.007727066862530865
2025-01-08 10:57:44.997473024,-0.2318244,-0.008372140592645261
2025-01-08 10:57:45.007579136,-0.21119744,-0.009007633246330726
2025-01-08 10:57:45.017468928,-0.24196613,-0.00963289200505667
2025-01-08 10:57:45.027633920,-0.24907309,-0.010247267581432556
2025-01-08 10:57:45.037614080,-0.27539563,-0.010850114777283202
2025-01-08 10:57:45.047694848,-0.33777833,-0.011440793042068105
2025-01-08 10:57:45.057548032,-0.43590981,-0.01201866703120457
2025-01-08 10:57:45.067624192,-0.53476852,-0.012583107163852508
2025-01-08 10:57:45.077529856,-0.58432269,-0.013133490179716685
2025-01-08 10:57:45.087526144,-0.61527002,-0.01366919969442061
2025-01-08 10:57:45.097528064,-0.66548657,-0.014189626753005459
2025-01-08 10:57:45.107606016,-0.69745737,-0.014694170381106195
2025-01-08 10:57:45.117615872,-0.7059899,-0.015182238133356441
2025-01-08 10:57:45.127665152,-0.70594901,-0.01565324663857429
2025-01-08 10:57:45.137697024,-0.70811164,-0.016106622141280273
2025-01-08 10:57:45.147624960,-0.73416966,-0.016541801039100464
2025-01-08 10:57:45.157659136,-0.76407361,-0.01695823041560744
2025-01-08 10:57:45.167789056,-0.77056688,-0.017355368568154284
2025-01-08 10:57:45.177635072,-0.74838465,-0.017732685530257464
2025-01-08 10:57:45.187643136,-0.71983212,-0.018089663588086557
2025-01-08 10:57:45.197665024,-0.73136508,-0.018425797790621846
2025-01-08 10:57:45.207704064,-0.75858706,-0.018740596453042418
2025-01-08 10:57:45.217768960,-0.78032976,-0.019033581652911316
2025-01-08 10:57:45.227545856,-0.75545746,-0.01930428971872693
2025-01-08 10:57:45.237676032,-0.69180942,-0.01955227171041447
2025-01-08 10:57:45.247692032,-0.61466801,-0.01977709389133417
2025-01-08 10:57:45.257585920,-0.55604154,-0.01997833819138889
2025-01-08 10:57:45.267604992,-0.5162167,-0.02015560266081684
2025-01-08 10:57:45.277627904,-0.45801455,-0.02030850191426188
2025-01-08 10:57:45.287659776,-0.41789389,-0.020436667564717927
2025-01-08 10:57:45.297664000,-0.39701945,-0.02053974864695097
2025-01-08 10:57:45.307649024,-0.34322029,-0.020617412030007425
2025-01-08 10:57:45.317701120,-0.31063718,-0.02066934281842451
2025-01-08 10:57:45.327752192,-0.30985111,-0.02069524474176511
2025-01-08 10:57:45.337869056,-0.27931339,-0.02069484053210627
2025-01-08 10:57:45.347768064,-0.25543344,-0.020667872289118712
2025-01-08 10:57:45.357774080,-0.25234401,-0.020614101832381552
2025-01-08 10:57:45.367793152,-0.22631568,-0.02053331104058522
2025-01-08 10:57:45.377794048,-0.20754296,-0.020425302177283652
2025-01-08 10:57:45.387816960,-0.19753999,-0.020289898202865354
2025-01-08 10:57:45.397861888,-0.15454507,-0.02012694307242223
2025-01-08 10:57:45.407886080,-0.14630848,-0.01993630201920397
2025-01-08 10:57:45.417902080,-0.15459841,-0.019717861823355765
2025-01-08 10:57:45.427876864,-0.1701436,-0.019471531065646305
2025-01-08 10:57:45.437918976,-0.21709037,-0.019197240365903746
2025-01-08 10:57:45.447872000,-0.27706087,-0.018894942605887304
2025-01-08 10:57:45.457849856,-0.28171432,-0.018564613136332776
2025-01-08 10:57:45.467933952,-0.2191937,-0.018206249967921133
2025-01-08 10:57:45.477931008,-0.17119396,-0.017819873945930657
2025-01-08 10:57:45.488061952,-0.17604983,-0.017405528908344094
2025-01-08 10:57:45.497939200,-0.21746594,-0.016963281827193984
2025-01-08 10:57:45.507996928,-0.25857306,-0.016493222932941184
2025-01-08 10:57:45.518092032,-0.28672493,-0.015995465821693533
2025-01-08 10:57:45.528090112,-0.27241242,-0.015470147545083562
2025-01-08 10:57:45.538180096,-0.23941803,-0.014917428682637134
2025-01-08 10:57:45.548103168,-0.20585585,-0.014337493396476645
2025-01-08 10:57:45.558070016,-0.14792472,-0.01373054946821578
2025-01-08 10:57:45.568093184,-0.13178444,-0.013096828317915699
2025-01-08 10:57:45.578145024,-0.14484316,-0.012436585004985113
2025-01-08 10:57:45.588123136,-0.13937753,-0.011750098210920299
2025-01-08 10:57:45.597986048,-0.13679761,-0.011037670203794571
2025-01-08 10:57:45.609200128,-0.12132889,-0.010299626784419893
2025-01-08 10:57:45.617986048,-0.09129339,-0.009536317214116921
2025-01-08 10:57:45.627847936,-0.08313906,-0.008748114124043816
2025-01-08 10:57:45.637975040,-0.0690673,-0.007935413406047564
2025-01-08 10:57:45.648011008,-0.0432353,-0.007098634085015778
2025-01-08 10:57:45.658030080,0.00588709,-0.006238218172720528
2025-01-08 10:57:45.668046080,0.06955206,-0.005354630503160369
2025-01-08 10:57:45.678085120,0.13882381,-0.004448358549420092
2025-01-08 10:57:45.688105216,0.21857601,-0.0035199122220825594
2025-01-08 10:57:45.698050048,0.29632652,-0.002569823649240799
2025-01-08 10:57:45.708086016,0.35583067,-0.0015986469381727374
2025-01-08 10:57:45.718306048,0.39969283,-0.0006069579187552505
2025-01-08 10:57:45.728005888,0.4195289,0.00040464613129147464
2025-01-08 10:57:45.738055936,0.43099403,0.001435546779224203
2025-01-08 10:57:45.748032000,0.4696216,0.0024851047480423825
2025-01-08 10:57:45.758132992,0.53240627,0.0035526602450656145
2025-01-08 10:57:45.768265984,0.59418207,0.004637533308175387
2025-01-08 10:57:45.779581952,0.64028418,0.005739024169559418
2025-01-08 10:57:45.788319232,0.65591311,0.006856413636782855
2025-01-08 10:57:45.798247936,0.67707056,0.007988963490996644
2025-01-08 10:57:45.808157952,0.70743871,0.00913591690207974
2025-01-08 10:57:45.818157056,0.73334694,0.010296498860497468
2025-01-08 10:57:45.828120064,0.74303597,0.011469916625645784
2025-01-08 10:57:45.838278144,0.74379057,0.012655360190436267
2025-01-08 10:57:45.848224000,0.75805664,0.01385200276186437
2025-01-08 10:57:45.858253056,0.74950916,0.015059001257289512
2025-01-08 10:57:45.868256000,0.7242384,0.01627549681614298
2025-01-08 10:57:45.878262016,0.69853729,0.017500615326766118
2025-01-08 10:57:45.888258048,0.65115291,0.018733467968068747
2025-01-08 10:57:45.898247936,0.57174647,0.019973151765685253
2025-01-08 10:57:45.908472064,0.46454602,0.021218750162293094
2025-01-08 10:57:45.918239232,0.38862246,0.022469333601746418
2025-01-08 10:57:45.928253952,0.31715059,0.023723960126665153
2025-01-08 10:57:45.938322944,0.23719805,0.024981675989108845
2025-01-08 10:57:45.948304896,0.14170426,0.026241516273952006
2025-01-08 10:57:45.958309888,0.03697872,0.02750250553456699
2025-01-08 10:57:45.968336128,-0.09707612,0.02876365844040955
2025-01-08 10:57:45.978321920,-0.22858787,0.03002398043609038
2025-01-08 10:57:45.988392192,-0.13794523,0.03128246841150677
2025-01-08 10:57:45.998799104,-0.07170957,0.03253811138259681
2025-01-08 10:57:46.008348928,-0.20783871,0.03378989118227014
2025-01-08 10:57:46.018338048,-0.01188385,0.03503678316105763
2025-01-08 10:57:46.028322816,0.28298658,0.03627775689701506
2025-01-08 10:57:46.038407936,0.34091634,0.03751177691440491
2025-01-08 10:57:46.048398080,0.43906975,0.03873780341067291
2025-01-08 10:57:46.058403072,0.41764647,0.03995479299122693
2025-01-08 10:57:46.068447232,0.12218714,0.04116169941151771
2025-01-08 10:57:46.078464000,-0.12223768,0.04235747432591343
2025-01-08 10:57:46.088495104,-0.24989122,0.04354106804285248
2025-01-08 10:57:46.098372096,-0.36948472,0.044711430285751516
2025-01-08 10:57:46.108581120,-0.42829353,0.04586751095914004
2025-01-08 10:57:46.118436096,-0.39618188,0.047008260919485005
2025-01-08 10:57:46.128474112,-0.30927849,0.04813263275016445
2025-01-08 10:57:46.138510848,-0.20826644,0.04923958154004251
2025-01-08 10:57:46.148436992,-0.11067802,0.050328065665093444
2025-01-08 10:57:46.158461184,-0.02928203,0.051397047572517535
2025-01-08 10:57:46.168462080,0.03132337,0.05244549456678696
