TIMESTAMP,ACCX,ACCX_filtered
2025-01-08 10:42:58.562016000,0.00401166,-0.29497312784579544
2025-01-08 10:42:58.572276224,0.00707941,-0.2996250998285717
2025-01-08 10:42:58.579652096,0.00940529,-0.3040103708674177
2025-01-08 10:42:58.590958080,0.00987649,-0.3081229326281635
2025-01-08 10:42:58.599433984,0.00620053,-0.3119569132300535
2025-01-08 10:42:58.611685120,0.00517918,-0.31550658124351494
2025-01-08 10:42:58.618771200,0.00717936,-0.3187663496101201
2025-01-08 10:42:58.674910976,0.00648984,-0.32173077948237855
2025-01-08 10:42:58.674927872,-0.00227245,-0.3243945839810461
2025-01-08 10:42:58.674934016,-0.0118266,-0.32675263186768255
2025-01-08 10:42:58.674940160,-0.01464272,-0.32879995113024485
2025-01-08 10:42:58.674946048,-0.01250692,-0.3305317324795482
2025-01-08 10:42:58.706358016,-0.00889206,-0.3319433327544818
2025-01-08 10:42:58.706376192,-0.003578,-0.33303027823392456
2025-01-08 10:42:58.706383104,-0.00106373,-0.3337882678533483
2025-01-08 10:42:58.709170176,-0.00351913,-0.3342131763241667
2025-01-08 10:42:58.719202048,-0.00546512,-0.33430105715393166
2025-01-08 10:42:58.728722944,-0.00595912,-0.3340481455655487
2025-01-08 10:42:58.741359104,-0.00471442,-0.333450861313728
2025-01-08 10:42:58.749458944,-0.00272144,-0.33250581139696317
2025-01-08 10:42:58.758976000,-0.00383011,-0.3312097926633757
2025-01-08 10:42:58.768503808,-0.00472678,-0.3295597943088365
2025-01-08 10:42:58.838902016,-0.00450964,-0.3275530002658291
2025-01-08 10:42:58.838917888,-0.00805136,-0.3251867914815904
2025-01-08 10:42:58.838924032,-0.01207178,-0.32245874808412156
2025-01-08 10:42:58.838928896,-0.01250484,-0.31936665143473236
2025-01-08 10:42:58.838934016,-0.00939876,-0.3159084860658448
2025-01-08 10:42:58.838939904,-0.01036792,-0.3120824415028464
2025-01-08 10:42:58.838944000,-0.00908007,-0.30788691396885665
2025-01-08 10:42:58.848547840,-0.00583556,-0.30332050797132787
2025-01-08 10:42:58.860325120,0.00051722,-0.2983820377694791
2025-01-08 10:42:58.870262016,0.00127851,-0.29307052872162553
2025-01-08 10:42:58.878746880,-0.00520442,-0.28738521851153215
2025-01-08 10:42:58.888673024,-0.01057934,-0.2813255582529943
2025-01-08 10:42:58.899622912,-0.0126959,-0.27489121347192036
2025-01-08 10:42:58.908711936,-0.01008809,-0.26808206496524467
2025-01-08 10:42:58.918746880,-0.00683429,-0.26089820953609927
2025-01-08 10:42:58.928742912,-0.00557624,-0.2533399606047094
2025-01-08 10:42:58.938817024,-0.00603863,-0.24540784869457674
2025-01-08 10:42:58.948792064,-0.00718288,-0.2371026217935642
2025-01-08 10:42:58.960521984,-0.00337896,-0.22842524558958746
2025-01-08 10:42:58.968754944,-0.00289321,-0.2193769035806685
2025-01-08 10:42:58.979397120,-0.00294168,-0.20995899705919246
2025-01-08 10:42:58.989728000,0.00033464,-0.20017314497028002
2025-01-08 10:42:59.022993920,0.00502266,-0.19002118364424314
2025-01-08 10:42:59.023013120,0.0080651,-0.17950516640318792
2025-01-08 10:42:59.023021056,0.00727728,-0.16862736304187853
2025-01-08 10:42:59.028926976,0.00341003,-0.1573902591830558
2025-01-08 10:42:59.039021056,0.00018522,-0.14579655550747367
2025-01-08 10:42:59.048978944,-0.00296864,-0.13384916685899112
2025-01-08 10:42:59.058889984,-0.00892041,-0.12155122122511805
2025-01-08 10:42:59.068942080,-0.00935093,-0.10890605859349332
2025-01-08 10:42:59.078843136,-0.00997614,-0.09591722968483872
2025-01-08 10:42:59.088912896,-0.01363429,-0.08258849456299976
2025-01-08 10:42:59.099017984,-0.01667373,-0.06892382112275633
2025-01-08 10:42:59.109038080,-0.01343964,-0.05492738345615579
2025-01-08 10:42:59.119138048,-0.00719823,-0.040603560098184936
2025-01-08 10:42:59.129143040,-0.00442078,-0.025956932152665403
2025-01-08 10:42:59.139309056,-0.00666137,-0.010992281299329717
2025-01-08 10:42:59.149051904,-0.01180141,0.0042854123169070195
2025-01-08 10:42:59.159046912,-0.00705997,0.019870972313394887
2025-01-08 10:42:59.169650176,0.00285611,0.03575902841275973
2025-01-08 10:42:59.179088128,0.00548306,0.051944018900275425
2025-01-08 10:42:59.189168896,-4.49e-06,0.06842019319430619
2025-01-08 10:42:59.199060992,0.00125227,0.08518161452848667
2025-01-08 10:42:59.209542912,0.01444907,0.10222216274423718
2025-01-08 10:42:59.219085056,0.01816602,0.11953553719214512
2025-01-08 10:42:59.229105920,0.01684402,0.13711525974069297
2025-01-08 10:42:59.238998016,0.02926665,0.15495467789074777
2025-01-08 10:42:59.249138176,0.0492795,0.1730469679941702
2025-01-08 10:42:59.259023872,0.05955115,0.19138513857484069
2025-01-08 10:42:59.269305856,0.06251015,0.2099620337503521
2025-01-08 10:42:59.279259904,0.08232622,0.22877033675254863
2025-01-08 10:42:59.289235200,0.11653165,0.247802573545053
2025-01-08 10:42:59.299261184,0.15668935,0.26705111653585417
2025-01-08 10:42:59.309029120,0.19394542,0.28650818838298775
2025-01-08 10:42:59.319084032,0.23194885,0.30616586589128114
2025-01-08 10:42:59.329463040,0.26345259,0.3260160839980938
2025-01-08 10:42:59.339426048,0.28473145,0.34605063984592394
2025-01-08 10:42:59.349447936,0.28796765,0.36626119693971493
2025-01-08 10:42:59.359293952,0.28415525,0.38663928938664
2025-01-08 10:42:59.369390080,0.28533816,0.4071763262161034
2025-01-08 10:42:59.379388160,0.29669785,0.4278635957776506
2025-01-08 10:42:59.389224960,0.31089714,0.4486922702144388
2025-01-08 10:42:59.399478016,0.32538807,0.46965341000986705
2025-01-08 10:42:59.409643008,0.35283911,0.4907379686049473
2025-01-08 10:42:59.419408128,0.39531788,0.5119367970839328
2025-01-08 10:42:59.429522944,0.44391879,0.5332406489256982
2025-01-08 10:42:59.439277056,0.48770204,0.5546401848183329
2025-01-08 10:42:59.449309184,0.52757281,0.5761259775343526
2025-01-08 10:42:59.459363072,0.57767361,0.5976885168639308
2025-01-08 10:42:59.469172992,0.64118338,0.619318214603493
2025-01-08 10:42:59.479068160,0.71676546,0.6410054095970028
2025-01-08 10:42:59.489394944,0.78914183,0.6627403728272283
2025-01-08 10:42:59.500109056,0.85556632,0.6845133125542656
2025-01-08 10:42:59.520143872,0.93375015,0.7063143794985445
2025-01-08 10:42:59.520158976,1.03209424,0.7281336720655432
2025-01-08 10:42:59.529476864,1.15608931,0.7499612416093983
2025-01-08 10:42:59.539043072,1.26704693,0.7717870977325795
2025-01-08 10:42:59.549140992,1.32548213,0.7936012136187817
2025-01-08 10:42:59.559031040,1.34247446,0.8153935313961621
2025-01-08 10:42:59.569351936,1.32713985,0.8371539675280315
2025-01-08 10:42:59.579448064,1.28097641,0.8588724182281057
2025-01-08 10:42:59.589059072,1.21865034,0.8805387648973914
2025-01-08 10:42:59.599490048,1.14282441,0.902142879579783
2025-01-08 10:42:59.609716992,1.07433462,0.9236746304334217
2025-01-08 10:42:59.619232768,1.03600788,0.9451238872148728
2025-01-08 10:42:59.629255168,1.01619458,0.9664805267731562
2025-01-08 10:42:59.639131904,1.00300241,0.9877344385506678
2025-01-08 10:42:59.649166080,0.985035,1.0088755300880181
2025-01-08 10:42:59.659378944,0.94819981,1.0298937325298168
2025-01-08 10:42:59.669243136,0.8806569,1.0507790061284188
2025-01-08 10:42:59.679220992,0.8109737,1.0715213457426644
2025-01-08 10:42:59.689184000,0.79022688,1.0921107863286321
2025-01-08 10:42:59.699273216,0.79870433,1.1125374084194242
2025-01-08 10:42:59.710968064,0.78511423,1.1327913435910313
2025-01-08 10:42:59.719264000,0.70875239,1.152862779911297
2025-01-08 10:42:59.729412096,0.60526133,1.1727419673690274
2025-01-08 10:42:59.739382016,0.5160144,1.1924192232803115
2025-01-08 10:42:59.749521920,0.45979321,1.2118849376690932
2025-01-08 10:42:59.759474944,0.40683961,1.2311295786190863
2025-01-08 10:42:59.769353984,0.3262434,1.2501436975941105
2025-01-08 10:42:59.779340032,0.22056568,1.2689179347239494
2025-01-08 10:42:59.789463040,0.12097716,1.2874430240528556
2025-01-08 10:42:59.799261952,0.05232453,1.3057097987478283
2025-01-08 10:42:59.810055936,0.04019123,1.323709196263826
2025-01-08 10:42:59.819330816,0.06693566,1.3414322634630855
2025-01-08 10:42:59.829396992,0.0630036,1.3588701616857426
2025-01-08 10:42:59.839368192,0.00290173,1.37601417176898
2025-01-08 10:42:59.849291008,-0.06471127,1.3928556990119414
2025-01-08 10:42:59.860410880,-0.11319786,1.4093862780836879
2025-01-08 10:42:59.869411072,-0.15370303,1.4255975778714942
2025-01-08 10:42:59.879503872,-0.19074798,1.441481406266807
2025-01-08 10:42:59.889585920,-0.22574657,1.4570297148862381
2025-01-08 10:42:59.899521024,-0.26710862,1.4722346037249623
2025-01-08 10:42:59.911226880,-0.31869817,1.487088325739961
2025-01-08 10:42:59.919563008,-0.37999022,1.5015832913605573
2025-01-08 10:42:59.929517056,-0.44600117,1.5157120729237403
2025-01-08 10:42:59.939693056,-0.50477499,1.5294674090318054
2025-01-08 10:42:59.949691904,-0.56710303,1.5428422088298799
2025-01-08 10:42:59.964593920,-0.63644564,1.5558295562009425
2025-01-08 10:42:59.969566208,-0.66346985,1.5684227138759796
2025-01-08 10:42:59.979696896,-0.66591954,1.5806151274569713
2025-01-08 10:42:59.989705984,-0.73304272,1.5924004293504392
2025-01-08 10:42:59.999586048,-0.81552577,1.6037724426093292
2025-01-08 10:43:00.011111936,-0.85637993,1.6147251846810537
2025-01-08 10:43:00.019550976,-0.82581985,1.625252871059564
2025-01-08 10:43:00.029590016,-0.65273476,1.6353499188393559
2025-01-08 10:43:00.039736064,-0.3323108,1.6450109501693881
2025-01-08 10:43:00.049545984,0.02292037,1.6542307956049151
2025-01-08 10:43:00.060599040,0.41261518,1.6630044973553022
2025-01-08 10:43:00.069675008,1.15124869,1.6713273124259391
2025-01-08 10:43:00.079623936,2.36593938,1.679194715652417
2025-01-08 10:43:00.089636096,3.38320708,1.6866024026251896
2025-01-08 10:43:00.099569920,3.60022163,1.693546292503001
2025-01-08 10:43:00.109757952,3.91313839,1.700022530713399
2025-01-08 10:43:00.119699968,4.86465073,1.7060274915387321
2025-01-08 10:43:00.134663168,5.74147081,1.711557780586065
2025-01-08 10:43:00.149362176,6.25992012,1.716610237139524
2025-01-08 10:43:00.149782784,6.69103241,1.7211819363936176
2025-01-08 10:43:00.160003840,6.93947124,1.7252701915661715
2025-01-08 10:43:00.181233920,6.8273797,1.7288725558895377
2025-01-08 10:43:00.181251072,6.32236814,1.7319868244788323
2025-01-08 10:43:00.189728000,5.64379978,1.7346110360759979
2025-01-08 10:43:00.199648000,4.9288125,1.7367434746685524
2025-01-08 10:43:00.209691904,4.18432331,1.7383826709819552
2025-01-08 10:43:00.219631872,3.65030909,1.7395274038445814
2025-01-08 10:43:00.229831936,3.40907979,1.7401767014243497
2025-01-08 10:43:00.239774976,3.24497533,1.740329842336132
2025-01-08 10:43:00.250112000,3.07436728,1.7399863566191238
2025-01-08 10:43:00.259816960,2.92878914,1.7391460265834184
2025-01-08 10:43:00.269998080,2.81306767,1.7378088875251128
2025-01-08 10:43:00.279771136,2.70445442,1.7359752283093084
2025-01-08 10:43:00.289833984,2.64785337,1.733645591820472
2025-01-08 10:43:00.300020992,2.71040249,1.7308207752796536
2025-01-08 10:43:00.309993984,2.70999026,1.727501830428158
2025-01-08 10:43:00.319942912,2.519382,1.7236900635773094
2025-01-08 10:43:00.330075136,2.1767993,1.7193870355240304
2025-01-08 10:43:00.340044032,1.87396598,1.7145945613320202
2025-01-08 10:43:00.350321152,1.8357091,1.709314709978382
2025-01-08 10:43:00.360837888,2.0283277,1.703549803865629
2025-01-08 10:43:00.370074112,2.17477798,1.6973024181990521
2025-01-08 10:43:00.379995136,2.09450459,1.690575380229514
2025-01-08 10:43:00.390235904,1.82829928,1.6833717683617926
2025-01-08 10:43:00.400365056,1.50458646,1.6756949111286796
2025-01-08 10:43:00.410176000,1.24236584,1.6675483860310898
2025-01-08 10:43:00.420049920,1.11836529,1.6589360182445219
2025-01-08 10:43:00.429907200,1.11986542,1.6498618791922748
2025-01-08 10:43:00.439856896,1.15003693,1.640330284985892
2025-01-08 10:43:00.450136832,1.16207635,1.630345794733368
2025-01-08 10:43:00.460004096,1.11777461,1.6199132087157369
2025-01-08 10:43:00.470055168,1.00665927,1.6090375664327148
2025-01-08 10:43:00.480166912,0.86476165,1.5977241445181407
2025-01-08 10:43:00.490107136,0.74060839,1.5859784545260345
2025-01-08 10:43:00.500060928,0.72642028,1.5738062405881472
2025-01-08 10:43:00.510215936,0.81578171,1.5612134769439618
2025-01-08 10:43:00.520025088,0.96984839,1.5482063653441447
2025-01-08 10:43:00.530361856,1.13952219,1.534791332328548
2025-01-08 10:43:00.540205056,1.26359594,1.520975026379896
2025-01-08 10:43:00.550244096,1.32983088,1.5067643149543786
2025-01-08 10:43:00.560257792,1.43180525,1.4921662813904264
2025-01-08 10:43:00.570132992,1.59489691,1.4771882216970174
2025-01-08 10:43:00.580588032,1.75141406,1.4618376412229137
2025-01-08 10:43:00.590365952,1.94378352,1.4461222512083118
2025-01-08 10:43:00.600235008,2.10835862,1.430049965220434
2025-01-08 10:43:00.610297088,1.86556721,1.4136288954746627
2025-01-08 10:43:00.620269056,1.49914479,1.3968673490428725
2025-01-08 10:43:00.630265856,1.33497036,1.3797738239506903
2025-01-08 10:43:00.640194048,1.33521557,1.3623570051654563
2025-01-08 10:43:00.650265088,1.33614945,1.3446257604767269
2025-01-08 10:43:00.660301056,1.16954327,1.3265891362712272
2025-01-08 10:43:00.670230016,0.89435852,1.30825635320421
2025-01-08 10:43:00.680221184,0.65744454,1.2896368017692266
2025-01-08 10:43:00.690334976,0.51965433,1.2707400377684
2025-01-08 10:43:00.700352000,0.47743785,1.2515757776853116
2025-01-08 10:43:00.710458112,0.54339218,1.2321538939626966
2025-01-08 10:43:00.720329984,0.65105939,1.2124844101871797
2025-01-08 10:43:00.730409984,0.78686988,1.1925774961833395
2025-01-08 10:43:00.740377856,0.98691165,1.1724434630194505
2025-01-08 10:43:00.750411008,1.19770038,1.1520927579272855
2025-01-08 10:43:00.760381952,1.37027669,1.13153595913843
2025-01-08 10:43:00.770456064,1.46627271,1.110783770639595
2025-01-08 10:43:00.780324096,1.41169858,1.0898470168494667
2025-01-08 10:43:00.790514944,1.19239902,1.0687366372196836
2025-01-08 10:43:00.800258048,0.93016428,1.047463680762565
2025-01-08 10:43:00.810280192,0.81996518,1.026039300508273
2025-01-08 10:43:00.820375808,0.87119579,1.0044747478941227
2025-01-08 10:43:00.830465024,0.97673005,0.9827813670887994
2025-01-08 10:43:00.840517120,1.0738337,0.960970589254289
2025-01-08 10:43:00.850397184,1.16313279,0.9390539267483564
2025-01-08 10:43:00.860454912,1.24659014,0.9170429672704516
2025-01-08 10:43:00.870505984,1.28048253,0.8949493679539612
2025-01-08 10:43:00.880492800,1.23016179,0.8727848494077511
2025-01-08 10:43:00.890479104,1.13027,0.8505611897099882
2025-01-08 10:43:00.900503040,1.05719018,0.8282902183572574
2025-01-08 10:43:00.910571008,1.03922415,0.8059838101720199
2025-01-08 10:43:00.920495104,1.0444622,0.7836538791714959
2025-01-08 10:43:00.930515968,1.04839253,0.7613123724010733
2025-01-08 10:43:00.940416000,1.04335046,0.7389712637353764
2025-01-08 10:43:00.950729984,1.01943147,0.7166425476501593
2025-01-08 10:43:00.960571136,0.97150224,0.6943382329682003
2025-01-08 10:43:00.970443008,0.89938575,0.6720703365824047
2025-01-08 10:43:00.980444928,0.81711727,0.6498508771593445
2025-01-08 10:43:00.993430016,0.7409634,0.6276918688264812
2025-01-08 10:43:01.000737024,0.67137653,0.6056053148463301
2025-01-08 10:43:01.010413824,0.59679884,0.5836032012808524
2025-01-08 10:43:01.020493056,0.50955552,0.5616974906493692
2025-01-08 10:43:01.030622976,0.40304857,0.5399001155832989
2025-01-08 10:43:01.040502016,0.26984251,0.5182229724810444
2025-01-08 10:43:01.050479872,0.10582536,0.4966779151663603
2025-01-08 10:43:01.060542976,-0.07990295,0.4752767485535257
2025-01-08 10:43:01.070574080,-0.25332952,0.4540312223226837
2025-01-08 10:43:01.080516096,-0.41654593,0.43295302460868285
2025-01-08 10:43:01.090347008,-0.56706136,0.4120537757067795
2025-01-08 10:43:01.100581888,-0.6922453,0.3913450217985504
2025-01-08 10:43:01.110502912,-0.81419855,0.37083822870137667
2025-01-08 10:43:01.120502016,-0.93910432,0.3505447756448407
2025-01-08 10:43:01.130585856,-1.03080249,0.3304759490773919
2025-01-08 10:43:01.140617984,-1.07715058,0.3106429365066234
2025-01-08 10:43:01.150605056,-1.08938622,0.2910568203764915
2025-01-08 10:43:01.160659968,-1.09055924,0.27172857198480893
2025-01-08 10:43:01.170713856,-1.08495724,0.2526690454443316
2025-01-08 10:43:01.180655104,-1.0658989,0.23388897169073433
2025-01-08 10:43:01.190611968,-1.0335958,0.21539895254077854
2025-01-08 10:43:01.200730112,-0.98579741,0.19720945480393953
2025-01-08 10:43:01.210758912,-0.92905784,0.1793308044507524
2025-01-08 10:43:01.220738048,-0.8849833,0.16177318084112122
2025-01-08 10:43:01.230853120,-0.84304482,0.14454661101580338
2025-01-08 10:43:01.240643072,-0.7690869,0.12766096405426886
2025-01-08 10:43:01.250796032,-0.63355863,0.11112594550210617
2025-01-08 10:43:01.260752896,-0.40568346,0.09495109187112091
2025-01-08 10:43:01.271023104,-0.04609245,0.07914576521524383
2025-01-08 10:43:01.281755904,0.46795666,0.06371914778533717
2025-01-08 10:43:01.291251968,1.0501399,0.048680236765964315
2025-01-08 10:43:01.301050880,1.42275596,0.03403783909713477
2025-01-08 10:43:01.311067136,1.32732141,0.019800566384030348
2025-01-08 10:43:01.320928000,0.86686873,0.005976829897654857
2025-01-08 10:43:01.330707968,0.3532629,-0.007425164330667151
2025-01-08 10:43:01.340899840,-0.03087223,-0.020397420318071287
2025-01-08 10:43:01.351056128,-0.19595581,-0.03293215683936923
2025-01-08 10:43:01.360836096,-0.18794441,-0.04502181203391697
2025-01-08 10:43:01.371307008,-0.1942758,-0.05665904790737618
2025-01-08 10:43:01.380868864,-0.24789447,-0.06783675472566661
2025-01-08 10:43:01.390846976,-0.2629739,-0.07854805529846082
2025-01-08 10:43:01.400835072,-0.20226109,-0.08878630914960745
2025-01-08 10:43:01.410771968,-0.1163193,-0.09854511657192341
2025-01-08 10:43:01.421158144,-0.03665811,-0.10781832256386518
2025-01-08 10:43:01.431139840,0.02630609,-0.11660002064561058
2025-01-08 10:43:01.440928000,0.0924527,-0.12488455655217122
2025-01-08 10:43:01.451004928,0.18894851,-0.13266653180119015
2025-01-08 10:43:01.461522944,0.31025749,-0.13994080713314558
2025-01-08 10:43:01.471236864,0.41773206,-0.14670250582173688
2025-01-08 10:43:01.480868096,0.45204067,-0.1529470168523056
2025-01-08 10:43:01.490880000,0.41264594,-0.15866999796617887
2025-01-08 10:43:01.500941056,0.34934813,-0.16386737856891034
2025-01-08 10:43:01.510892032,0.28784341,-0.16853536250045414
2025-01-08 10:43:01.520978944,0.22510612,-0.17267043066536203
2025-01-08 10:43:01.530940928,0.1560455,-0.17626934352117457
2025-01-08 10:43:01.541157888,0.10093439,-0.1793291434232448
2025-01-08 10:43:01.551100928,0.06305474,-0.18184715682429445
2025-01-08 10:43:01.561050880,0.02827382,-0.18382099632708
2025-01-08 10:43:01.570887936,0.00079298,-0.18524856258862635
2025-01-08 10:43:01.581284096,-0.00663173,-0.18612804607454125
2025-01-08 10:43:01.591212032,0.01324964,-0.18645792866201644
2025-01-08 10:43:01.601801984,0.04359686,-0.18623698509018732
2025-01-08 10:43:01.611136000,0.07005519,-0.1854642842566021
2025-01-08 10:43:01.621160960,0.10204357,-0.18413919035863244
2025-01-08 10:43:01.631155968,0.14921945,-0.18226136387873157
2025-01-08 10:43:01.641100800,0.20832503,-0.17983076241253054
2025-01-08 10:43:01.651012864,0.26569241,-0.1768476413388398
2025-01-08 10:43:01.661257984,0.31720811,-0.17331255433071097
2025-01-08 10:43:01.671160064,0.35582179,-0.16922635370678818
2025-01-08 10:43:01.681230080,0.38539857,-0.16459019062226693
2025-01-08 10:43:01.691207936,0.44156474,-0.159405515098865
2025-01-08 10:43:01.701062912,0.53400207,-0.15367407589328552
2025-01-08 10:43:01.711016960,0.63997781,-0.14739792020374834
2025-01-08 10:43:01.721120000,0.73022318,-0.14057939321424232
2025-01-08 10:43:01.731170048,0.80852628,-0.1332211374762469
2025-01-08 10:43:01.741128960,0.88816291,-0.12532609212774867
2025-01-08 10:43:01.751092992,0.94097054,-0.11689749194947671
2025-01-08 10:43:01.761171968,1.00169897,-0.10793886625835851
2025-01-08 10:43:01.771173888,1.0448302,-0.09845403763829255
2025-01-08 10:43:01.781152000,1.03246069,-0.08844712050842655
2025-01-08 10:43:01.791238912,0.98274237,-0.07792251952920333
2025-01-08 10:43:01.801296896,0.89465106,-0.06688492784654677
2025-01-08 10:43:01.811281920,0.77946013,-0.05533932517463451
2025-01-08 10:43:01.821257984,0.66181839,-0.04329097571780023
2025-01-08 10:43:01.831343872,0.54639179,-0.0307454259321949
2025-01-08 10:43:01.841320960,0.44684008,-0.01770850212793188
2025-01-08 10:43:01.851222016,0.35216364,-0.0041863079125232915
2025-01-08 10:43:01.861267200,0.26148576,0.009814778523490508
2025-01-08 10:43:01.871319040,0.15893382,0.024288107277723237
2025-01-08 10:43:01.881419776,0.03806078,0.039226759762864716
2025-01-08 10:43:01.891324160,-0.09350634,0.05462355188816362
2025-01-08 10:43:01.901339904,-0.22143,0.07047103739421873
2025-01-08 10:43:01.911262976,-0.35191137,0.08676151133972534
2025-01-08 10:43:01.921243904,-0.49937654,0.103487013738742
2025-01-08 10:43:01.931353088,-0.65410793,0.12063933334695466
2025-01-08 10:43:01.941267968,-0.78451627,0.1382100115953199
2025-01-08 10:43:01.951257088,-0.87257004,0.15619034666939258
2025-01-08 10:43:01.961371904,-0.92189717,0.17457139773254504
2025-01-08 10:43:01.971324928,-0.93446386,0.19334398929120836
2025-01-08 10:43:01.981428992,-0.906919,0.21249871570018036
2025-01-08 10:43:01.991386880,-0.85426533,0.2320259458059418
2025-01-08 10:43:02.001305088,-0.78910744,0.25191582772587334
2025-01-08 10:43:02.011264000,-0.71950638,0.27215829376114425
2025-01-08 10:43:02.021240064,-0.64649451,0.29274306544098916
2025-01-08 10:43:02.031363840,-0.57574725,0.3136596586959943
2025-01-08 10:43:02.041424896,-0.5059799,0.3348973891579358
2025-01-08 10:43:02.051291904,-0.43786651,0.3564453775836372
2025-01-08 10:43:02.061469184,-0.3697052,0.37829255540022955
2025-01-08 10:43:02.071470080,-0.30690458,0.4004276703691246
2025-01-08 10:43:02.081500160,-0.23156023,0.42283929236592926
2025-01-08 10:43:02.091489024,-0.1402089,0.4455158192734611
2025-01-08 10:43:02.101468928,-0.04081619,0.46844548298494854
2025-01-08 10:43:02.111417088,0.03978544,0.4916163555144226
2025-01-08 10:43:02.121547008,0.08394611,0.5150163552112415
2025-01-08 10:43:02.131522816,0.08310157,0.5386332530756152
2025-01-08 10:43:02.141506048,0.04680967,0.5624546791719363
2025-01-08 10:43:02.151470848,-0.00487775,0.5864681291366434
2025-01-08 10:43:02.161488896,-0.0579951,0.6106609707772895
2025-01-08 10:43:02.171646976,-0.10429239,0.6350204507594217
2025-01-08 10:43:02.182498048,-0.13594726,0.6595337013778124
2025-01-08 10:43:02.191776000,-0.15647748,0.6841877474085225
2025-01-08 10:43:02.201741824,-0.17452638,0.7089695130382259
2025-01-08 10:43:02.211714048,-0.19819269,0.733865828867155
2025-01-08 10:43:02.221844992,-0.22471242,0.7588634389819825
2025-01-08 10:43:02.233683968,-0.24465698,0.7839490080948966
2025-01-08 10:43:02.241730048,-0.25628367,0.8091091287450759
2025-01-08 10:43:02.251655936,-0.25307649,0.8343303285587182
2025-01-08 10:43:02.261696000,-0.22262305,0.8595990775637418
2025-01-08 10:43:02.271737088,-0.18190388,0.8849017955552064
2025-01-08 10:43:02.281796864,-0.17405079,0.9102248595074947
2025-01-08 10:43:02.291718912,-0.20458639,0.9355546110292154
2025-01-08 10:43:02.301584896,-0.24987803,0.9608773638567789
2025-01-08 10:43:02.311738112,-0.26041752,0.9861794113825428
2025-01-08 10:43:02.321667072,-0.2296827,1.0114470342133957
2025-01-08 10:43:02.331849216,-0.16224754,1.036666507755617
2025-01-08 10:43:02.341414912,-0.04720187,1.0618241098218115
2025-01-08 10:43:02.351905024,0.1430162,1.0869061282557007
2025-01-08 10:43:02.361835008,0.48251075,1.1118988685705158
2025-01-08 10:43:02.371746048,1.02935195,1.1367886615967249
2025-01-08 10:43:02.381779968,1.81098926,1.1615618711347928
2025-01-08 10:43:02.391824896,2.37409806,1.1862049016086682
2025-01-08 10:43:02.401714944,2.38509417,1.2107042057156583
2025-01-08 10:43:02.411782144,2.72697234,1.2350462920683591
2025-01-08 10:43:02.421637888,3.65350413,1.2592177328242748
2025-01-08 10:43:02.431736832,4.59401798,1.2832051712987704
2025-01-08 10:43:02.441790208,4.75449467,1.3069953295569812
2025-01-08 10:43:02.451663872,4.59668779,1.3305750159803071
2025-01-08 10:43:02.461654784,4.92264795,1.3539311328031145
2025-01-08 10:43:02.471662080,5.44698811,1.3770506836152716
2025-01-08 10:43:02.481687040,5.61946154,1.3999207808261405
2025-01-08 10:43:02.491933952,5.49996614,1.4225286530856711
2025-01-08 10:43:02.501719040,5.70126343,1.4448616526582236
2025-01-08 10:43:02.511862016,5.76532793,1.4669072627447934
2025-01-08 10:43:02.521745920,4.94795275,1.4886531047492868
2025-01-08 10:43:02.531902976,4.00141573,1.5100869454845511
2025-01-08 10:43:02.541831936,3.474365,1.5311967043138501
2025-01-08 10:43:02.551927040,3.0852375,1.5519704602235123
2025-01-08 10:43:02.561711104,2.64107203,1.5723964588225088
2025-01-08 10:43:02.571832832,2.29019237,1.5924631192647323
2025-01-08 10:43:02.582232064,2.00393248,1.6121590410897793
2025-01-08 10:43:02.591938048,1.74208927,1.6314730109780888
2025-01-08 10:43:02.601927168,1.55792475,1.650394009416291
2025-01-08 10:43:02.611928832,1.33942413,1.6689112172686924
2025-01-08 10:43:02.621794816,1.0052824,1.687014022250841
2025-01-08 10:43:02.631895040,0.69331729,1.7046920253011644
2025-01-08 10:43:02.641869056,0.48045784,1.7219350468467183
2025-01-08 10:43:02.652092928,0.24286109,1.7387331329591325
2025-01-08 10:43:02.662157056,-0.11508942,1.7550765613968902
2025-01-08 10:43:02.672059904,-0.52917069,1.7709558475301235
2025-01-08 10:43:02.682125056,-0.9460482,1.786361750144174
2025-01-08 10:43:02.692419072,-1.36005807,1.8012852771182166
2025-01-08 10:43:02.702330112,-1.73808813,1.8157176909752994
2025-01-08 10:43:02.712261888,-2.00895691,1.8296505143002417
2025-01-08 10:43:02.721838848,-2.0949533,1.84307553502185
2025-01-08 10:43:02.731906816,-2.01151919,1.8559848115560302
2025-01-08 10:43:02.741849856,-1.79193616,1.8683706778064084
2025-01-08 10:43:02.752070912,-1.51104736,1.8802257480191553
2025-01-08 10:43:02.761966080,-1.24724197,1.891542921488788
2025-01-08 10:43:02.772197120,-1.05381918,1.9023153871117922
2025-01-08 10:43:02.782071040,-0.95911396,1.9125366277849907
2025-01-08 10:43:02.792105984,-0.87835526,1.922200424645657
2025-01-08 10:43:02.802068992,-0.68740439,1.9313008611504752
2025-01-08 10:43:02.811884032,-0.43000597,1.9398323269904967
2025-01-08 10:43:02.822119936,-0.14274687,1.9477895218393781
2025-01-08 10:43:02.832132096,0.1966083,1.9551674589322254
2025-01-08 10:43:02.842098944,0.69768435,1.9619614684725004
2025-01-08 10:43:02.852171776,1.55760252,1.9681672008645075
2025-01-08 10:43:02.862176768,2.82552934,1.9737806297690974
2025-01-08 10:43:02.871969024,4.21468258,1.9787980549803046
2025-01-08 10:43:02.882132992,5.23640633,1.9832161051207375
2025-01-08 10:43:02.892180992,5.82679129,1.9870317401536488
2025-01-08 10:43:02.902155008,6.56019115,1.9902422537096998
2025-01-08 10:43:02.912226816,6.9857707,1.9928452752265478
2025-01-08 10:43:02.922188032,6.81909132,1.9948387718994895
2025-01-08 10:43:02.932110080,6.48846436,1.9962210504414872
2025-01-08 10:43:02.941879040,6.0518055,1.9969907586510312
2025-01-08 10:43:02.951963904,5.58186436,1.9971468867863817
2025-01-08 10:43:02.961914112,5.09265041,1.9966887687448633
2025-01-08 10:43:02.972055040,4.6569562,1.9956160830459728
2025-01-08 10:43:02.982104064,4.29664707,1.9939288536172013
2025-01-08 10:43:02.992194816,4.00605059,1.9916274503815614
2025-01-08 10:43:03.001938176,3.89426041,1.9887125896459341
2025-01-08 10:43:03.012111872,3.84513927,1.9851853342894799
2025-01-08 10:43:03.022176000,3.64306498,1.9810470937514426
2025-01-08 10:43:03.032061184,3.38275051,1.9762996238178292
2025-01-08 10:43:03.042141952,3.08054996,1.9709450262065387
2025-01-08 10:43:03.052151808,2.79805422,1.9649857479506463
2025-01-08 10:43:03.062164992,2.53937125,1.9584245805796674
2025-01-08 10:43:03.072141056,2.19189358,1.9512646590987441
2025-01-08 10:43:03.082132992,1.81802619,1.943509460765815
2025-01-08 10:43:03.092204032,1.64210653,1.93516280366696
2025-01-08 10:43:03.102157056,1.6615119,1.926228845090216
2025-01-08 10:43:03.112032768,1.74423993,1.9167120796983055
2025-01-08 10:43:03.122242048,1.77027678,1.9066173375008182
2025-01-08 10:43:03.132345088,1.70505464,1.8959497816265236
2025-01-08 10:43:03.142547968,1.61226964,1.8847149058966097
2025-01-08 10:43:03.152566016,1.47491634,1.8729185321997588
2025-01-08 10:43:03.162477056,1.30692339,1.8605668076701076
2025-01-08 10:43:03.172513024,1.16481781,1.8476662016692522
2025-01-08 10:43:03.182318080,1.05978537,1.8342235025735691
2025-01-08 10:43:03.192596992,0.97511399,1.820245814368276
2025-01-08 10:43:03.202496000,0.88243461,1.8057405530497364
2025-01-08 10:43:03.212537088,0.77462661,1.7907154428376693
2025-01-08 10:43:03.222605056,0.67697537,1.7751785121990193
2025-01-08 10:43:03.233378048,0.61026895,1.7591380896853774
2025-01-08 10:43:03.242594048,0.59941828,1.7426027995859492
2025-01-08 10:43:03.252557056,0.61447471,1.725581557398196
2025-01-08 10:43:03.262362112,0.67493945,1.7080835651183839
2025-01-08 10:43:03.272516864,0.79138547,1.6901183063543876
2025-01-08 10:43:03.282426112,0.80924249,1.6716955412632315
2025-01-08 10:43:03.292377856,0.70067298,1.652825301315928
2025-01-08 10:43:03.302566144,0.53975964,1.6335178838923265
2025-01-08 10:43:03.312404992,0.4333787,1.6137838467087633
2025-01-08 10:43:03.322444800,0.4464038,1.5936340020814335
2025-01-08 10:43:03.332542976,0.61778462,1.5730794110285067
2025-01-08 10:43:03.342403840,0.92098403,1.552131377214114
2025-01-08 10:43:03.352673024,1.19498205,1.5308014407374426
2025-01-08 10:43:03.362780928,1.22712469,1.5091013717702773
2025-01-08 10:43:03.372657920,0.98464066,1.4870431640464241
2025-01-08 10:43:03.382795008,0.70248282,1.4646390282065698
2025-01-08 10:43:03.392539904,0.53851712,1.4419013850021971
2025-01-08 10:43:03.402537984,0.46909922,1.4188428583623045
2025-01-08 10:43:03.412507904,0.44215357,1.3954762683267612
2025-01-08 10:43:03.422607872,0.41917956,1.3718146238502076
2025-01-08 10:43:03.432519936,0.37683466,1.3478711154805265
2025-01-08 10:43:03.442651904,0.34635353,1.3236591079159745
2025-01-08 10:43:03.452616960,0.35831809,1.2991921324451692
2025-01-08 10:43:03.462563072,0.38168141,1.274483879274193
2025-01-08 10:43:03.472474112,0.46886864,1.2495481897451692
2025-01-08 10:43:03.482624000,0.72834826,1.2243990484507383
2025-01-08 10:43:03.492603136,1.10861337,1.1990505752489362
2025-01-08 10:43:03.502706944,1.38466024,1.173517017183059
2025-01-08 10:43:03.512536064,1.33064747,1.147812740311157
2025-01-08 10:43:03.522689024,1.05999017,1.1219522214498838
2025-01-08 10:43:03.532615936,0.87653732,1.0959500398374702
2025-01-08 10:43:03.542743040,0.83319569,1.0698208687206867
2025-01-08 10:43:03.552591104,0.81868684,1.0435794668706815
2025-01-08 10:43:03.562714112,0.81384444,1.0172406700326724
2025-01-08 10:43:03.572532992,0.83994412,0.9908193823144992
2025-01-08 10:43:03.582583808,0.89089167,0.9643305675191075
2025-01-08 10:43:03.592696064,0.97117257,0.9377892404260788
2025-01-08 10:43:03.602493952,1.02878761,0.9112104580273731
2025-01-08 10:43:03.612720128,1.02745855,0.884609310722473
2025-01-08 10:43:03.622742016,0.976722,0.8580009134781895
2025-01-08 10:43:03.632818944,0.92353505,0.8314003969583904
2025-01-08 10:43:03.644040192,0.892106,0.804822898628965
2025-01-08 10:43:03.652779008,0.89452058,0.7782835538433727
2025-01-08 10:43:03.662882048,0.92497945,0.7517974869141231
2025-01-08 10:43:03.672636160,0.95675516,0.7253798021755921
2025-01-08 10:43:03.682761984,0.97812927,0.6990455750435616
2025-01-08 10:43:03.692697088,1.00602603,0.6728098430769256
2025-01-08 10:43:03.702759936,1.04815054,0.6466875970469752
2025-01-08 10:43:03.712657920,1.09564519,0.6206937720197242
2025-01-08 10:43:03.722880000,1.1371181,0.5948432384567147
2025-01-08 10:43:03.732800000,1.1557138,0.5691507933397542
2025-01-08 10:43:03.742829056,1.13443363,0.5436311513250395
2025-01-08 10:43:03.752748032,1.06779182,0.5182989359321103
2025-01-08 10:43:03.762885120,0.92840487,0.49316867077306903
2025-01-08 10:43:03.772691968,0.7074483,0.4682547708274929
2025-01-08 10:43:03.782841088,0.4353109,0.4435715337684545
2025-01-08 10:43:03.792905984,0.17097384,0.41913313134503516
2025-01-08 10:43:03.802927104,-0.09109908,0.39495360082671005
2025-01-08 10:43:03.812902912,-0.34525698,0.3710468365149425
2025-01-08 10:43:03.822785024,-0.54181403,0.3474265813273114
2025-01-08 10:43:03.832930048,-0.65828687,0.3241064184594505
2025-01-08 10:43:03.842742016,-0.68632764,0.3010997631300498
2025-01-08 10:43:03.852777984,-0.64723885,0.27841985441412936
2025-01-08 10:43:03.862812160,-0.59102976,0.25607974716974935
2025-01-08 10:43:03.872897024,-0.55507463,0.23409230406327938
2025-01-08 10:43:03.882909184,-0.54246175,0.21247018769829715
2025-01-08 10:43:03.892752896,-0.55142635,0.19122585285313481
2025-01-08 10:43:03.902644992,-0.54097694,0.1703715388320372
2025-01-08 10:43:03.912910080,-0.52583206,0.14991926193483066
2025-01-08 10:43:03.922910976,-0.55441099,0.12988080804994687
2025-01-08 10:43:03.932890880,-0.61931598,0.11026772537557691
2025-01-08 10:43:03.942758912,-0.65227193,0.09109131727365365
2025-01-08 10:43:03.953238016,-0.63314605,0.07236263526130451
2025-01-08 10:43:03.962904064,-0.59482503,0.054092472144327323
2025-01-08 10:43:03.972902144,-0.53973156,0.036291355297166865
2025-01-08 10:43:03.983088128,-0.46617955,0.018969540093792203
2025-01-08 10:43:03.992916224,-0.36956346,0.0021370034937896183
2025-01-08 10:43:04.003019008,-0.2322039,-0.014196562212112676
2025-01-08 10:43:04.013005056,-0.02667665,-0.030021755492942184
2025-01-08 10:43:04.022888960,0.24296176,-0.045329471500768076
2025-01-08 10:43:04.033114880,0.54353869,-0.060110907822430996
2025-01-08 10:43:04.043073024,0.80181015,-0.07435757005586541
2025-01-08 10:43:04.053095168,0.87854069,-0.08806127720727606
2025-01-08 10:43:04.063173888,0.70605773,-0.10121416690552382
2025-01-08 10:43:04.073134848,0.41938043,-0.11380870043019382
2025-01-08 10:43:04.083209984,0.1562134,-0.12583766754991219
2025-01-08 10:43:04.093293056,-0.04700041,-0.13729419116761613
2025-01-08 10:43:04.103133952,-0.13554406,-0.14817173176956225
2025-01-08 10:43:04.113281024,-0.11655045,-0.15846409167500172
2025-01-08 10:43:04.123197952,-0.02957571,-0.1681654190835645
2025-01-08 10:43:04.133315072,0.06960714,-0.17727021191750247
2025-01-08 10:43:04.143301120,0.15865815,-0.18577332145607742
2025-01-08 10:43:04.153394944,0.23986584,-0.19366995575950693
2025-01-08 10:43:04.163260928,0.29989243,-0.20095568287999574
2025-01-08 10:43:04.173362944,0.34968072,-0.2076264338575188
2025-01-08 10:43:04.183165184,0.41959846,-0.21367850549815554
2025-01-08 10:43:04.193255936,0.51251757,-0.21910856293289302
2025-01-08 10:43:04.203363840,0.58115351,-0.22391364195497118
2025-01-08 10:43:04.213359104,0.59979534,-0.22809115113395692
2025-01-08 10:43:04.223246080,0.58648115,-0.23163887370488964
2025-01-08 10:43:04.233115904,0.56449348,-0.2345549692309657
2025-01-08 10:43:04.243230976,0.55568463,-0.23683797503837986
2025-01-08 10:43:04.253376000,0.57632518,-0.23848680742207345
2025-01-08 10:43:04.263223040,0.60774225,-0.23950076262128797
2025-01-08 10:43:04.273479936,0.65967876,-0.2398795175639649
2025-01-08 10:43:04.283384064,0.70602131,-0.23962313037917238
2025-01-08 10:43:04.293431040,0.73090231,-0.23873204067688963
2025-01-08 10:43:04.303356928,0.75031477,-0.23720706959462542
2025-01-08 10:43:04.313175040,0.80518728,-0.23504941961048761
2025-01-08 10:43:04.323357184,0.85123968,-0.23226067412247348
2025-01-08 10:43:04.333080064,0.82578456,-0.2288427967938989
2025-01-08 10:43:04.343194112,0.71824914,-0.22479813066502488
2025-01-08 10:43:04.353254912,0.5921728,-0.22012939703109521
2025-01-08 10:43:04.363091968,0.48991203,-0.21483969408714604
2025-01-08 10:43:04.373425920,0.42742199,-0.20893249534009248
2025-01-08 10:43:04.383395840,0.41572452,-0.2024116477887473
2025-01-08 10:43:04.393452800,0.45600104,-0.19528136987258204
2025-01-08 10:43:04.403400960,0.49568665,-0.18754624919017368
2025-01-08 10:43:04.413356032,0.4874157,-0.1792112399884442
2025-01-08 10:43:04.423384832,0.43983698,-0.17028166042393508
2025-01-08 10:43:04.433273088,0.40563273,-0.16076318959751495
2025-01-08 10:43:04.443403008,0.40908867,-0.15066186436404988
2025-01-08 10:43:04.453352960,0.43958282,-0.13998407591873704
2025-01-08 10:43:04.463488000,0.47324109,-0.1287365661619147
2025-01-08 10:43:04.473849088,0.48650756,-0.11692642384433372
2025-01-08 10:43:04.483464960,0.47694859,-0.1045610804949976
2025-01-08 10:43:04.493300992,0.44095209,-0.09164830613383644
2025-01-08 10:43:04.503444992,0.39857185,-0.07819620477160202
2025-01-08 10:43:04.513490944,0.35378429,-0.0642132096995301
2025-01-08 10:43:04.528692992,0.30087101,-0.04970807857143867
2025-01-08 10:43:04.533353984,0.24810836,-0.03468988828107217
2025-01-08 10:43:04.543384064,0.2026549,-0.01916802963763879
2025-01-08 10:43:04.553519872,0.16719434,-0.0031522018426162783
2025-01-08 10:43:04.563579136,0.1392806,0.01334759322896474
2025-01-08 10:43:04.573671936,0.10318233,0.03032105693941995
2025-01-08 10:43:04.583502080,0.05778832,0.04775759998803143
2025-01-08 10:43:04.594053888,0.04625547,0.06564634869579566
2025-01-08 10:43:04.603569152,0.06968529,0.08397615147158487
2025-01-08 10:43:04.613580032,0.08324319,0.10273558545588939
2025-01-08 10:43:04.623610112,0.07442567,0.12191296333818868
2025-01-08 10:43:04.633483008,0.02385848,0.14149634034387495
2025-01-08 10:43:04.643565824,-0.05101454,0.16147352138655444
2025-01-08 10:43:04.653539840,-0.13279557,0.18183206838142427
2025-01-08 10:43:04.663556096,-0.19723463,0.20255930771532607
2025-01-08 10:43:04.673857024,-0.2132702,0.22364233786896437
2025-01-08 10:43:04.683667968,-0.20151997,0.24506803718667708
2025-01-08 10:43:04.693659904,-0.1864493,0.26682307178904613
2025-01-08 10:43:04.703612928,-0.20800032,0.2888939036235345
2025-01-08 10:43:04.713624064,-0.28088561,0.3112667986482506
2025-01-08 10:43:04.723885056,-0.29588768,0.33392783514383323
2025-01-08 10:43:04.733712896,-0.18216257,0.3568629121483812
2025-01-08 10:43:04.743608832,0.02873901,0.3800577580102555
2025-01-08 10:43:04.753704960,0.26968497,0.40349793905349407
2025-01-08 10:43:04.763725056,0.47138208,0.42716886835051954
2025-01-08 10:43:04.773700096,0.66545796,0.4510558145967266
2025-01-08 10:43:04.783714048,0.84672236,0.4751439110814719
2025-01-08 10:43:04.793730048,0.98839456,0.49941816474992146
2025-01-08 10:43:04.803704064,1.03364146,0.5238634653501452
2025-01-08 10:43:04.813692160,0.97488213,0.5484645946597806
2025-01-08 10:43:04.823736832,0.90639788,0.5732062357865443
2025-01-08 10:43:04.833841152,0.91045684,0.5980729825367975
2025-01-08 10:43:04.843784192,0.96944666,0.6230493488463377
2025-01-08 10:43:04.853702912,0.98514974,0.6481197782675334
2025-01-08 10:43:04.863796992,0.84137249,0.6732686535068759
2025-01-08 10:43:04.873757952,0.60471696,0.6984803060069872
2025-01-08 10:43:04.883837952,0.388152,0.7237390255670875
2025-01-08 10:43:04.893861888,0.24801338,0.7490290699958895
2025-01-08 10:43:04.903859968,0.19314724,0.774334674790864
2025-01-08 10:43:04.913831936,0.22391284,0.7996400628377985
2025-01-08 10:43:04.923876096,0.31575829,0.8249294541245474
2025-01-08 10:43:04.933841920,0.43212986,0.85018707546286
2025-01-08 10:43:04.943815936,0.51762211,0.8753971702121548
2025-01-08 10:43:04.953862912,0.54907894,0.9005440079991186
2025-01-08 10:43:04.963897856,0.57063758,0.9256118944269751
2025-01-08 10:43:04.973881856,0.5842585,0.9505851807683001
2025-01-08 10:43:04.983913984,0.61004114,0.9754482736352448
2025-01-08 10:43:04.994023168,0.66897124,1.0001856446210429
2025-01-08 10:43:05.003938816,0.73548645,1.024781839906691
2025-01-08 10:43:05.013879040,0.73658913,1.0492214898267078
2025-01-08 10:43:05.024071936,0.62585694,1.073489318387895
2025-01-08 10:43:05.034125056,0.50073916,1.0975701527350545
2025-01-08 10:43:05.044017920,0.43733573,1.1214489325576367
2025-01-08 10:43:05.054064896,0.43669742,1.1451107194313317
2025-01-08 10:43:05.064142848,0.46108645,1.1685407060886537
2025-01-08 10:43:05.074206976,0.44008023,1.191724225612605
2025-01-08 10:43:05.084069120,0.36671805,1.2146467605475497
2025-01-08 10:43:05.094094080,0.27042794,1.2372939519214863
2025-01-08 10:43:05.104131840,0.21526235,1.2596516081739386
2025-01-08 10:43:05.114080000,0.18535846,1.2817057139837715
2025-01-08 10:43:05.124315904,0.14145344,1.3034424389912616
2025-01-08 10:43:05.134089984,0.06588447,1.3248481464088502
2025-01-08 10:43:05.144116992,-0.02987063,1.3459094015150521
2025-01-08 10:43:05.154124032,-0.0799017,1.366612980026066
2025-01-08 10:43:05.164113920,-0.11835021,1.3869458763397233
2025-01-08 10:43:05.174128128,-0.21118593,1.4068953116464658
2025-01-08 10:43:05.183948032,-0.41993809,1.4264487419021483
2025-01-08 10:43:05.194670848,-0.77141964,1.4455938656575293
2025-01-08 10:43:05.204054016,-1.19486153,1.464318631739411
2025-01-08 10:43:05.214095104,-1.55465364,1.4826112467784798
2025-01-08 10:43:05.224104960,-1.70014477,1.5004601825789952
2025-01-08 10:43:05.234067968,-1.6580584,1.5178541833255705
2025-01-08 10:43:05.244015104,-1.58410132,1.5347822726223908
2025-01-08 10:43:05.254028032,-1.54977846,1.5512337603603255
2025-01-08 10:43:05.265125120,-1.57812929,1.5671982494074872
2025-01-08 10:43:05.274446848,-1.62142849,1.5826656421189211
2025-01-08 10:43:05.284081920,-1.5452317,1.5976261466611936
2025-01-08 10:43:05.294085120,-1.35094249,1.6120702831477975
2025-01-08 10:43:05.304180992,-1.04582572,1.6259888895813845
2025-01-08 10:43:05.313995008,-0.63196981,1.6393731275989774
2025-01-08 10:43:05.324057088,-0.18600327,1.6522144880164225
2025-01-08 10:43:05.334148864,0.22328508,1.6645047961684893
2025-01-08 10:43:05.344137984,0.67591238,1.6762362170411347
2025-01-08 10:43:05.354237952,1.45889044,1.687401260192594
2025-01-08 10:43:05.364221184,2.81692624,1.6979927844600955
2025-01-08 10:43:05.374185984,4.28254175,1.7080040024491214
2025-01-08 10:43:05.384145920,4.70113325,1.717428484802295
2025-01-08 10:43:05.394699008,5.2040987,1.7262601642450925
2025-01-08 10:43:05.404083968,6.10690165,1.7344933394057434
2025-01-08 10:43:05.414235136,6.61363745,1.7421226784068062
2025-01-08 10:43:05.424272128,7.09215832,1.7491432222260777
2025-01-08 10:43:05.434290944,7.25289345,1.7555503878246117
2025-01-08 10:43:05.444272128,7.31737995,1.7613399710398014
2025-01-08 10:43:05.454164992,7.19843245,1.7665081492416128
2025-01-08 10:43:05.464333056,6.49483967,1.7710514837502158
2025-01-08 10:43:05.474248960,5.54251432,1.7749669220134079
2025-01-08 10:43:05.484282880,4.72903156,1.7782517995423912
2025-01-08 10:43:05.494266112,4.13652229,1.7809038416046052
2025-01-08 10:43:05.504417792,3.67825317,1.7829211646724787
2025-01-08 10:43:05.514290176,3.29328918,1.7843022776271353
2025-01-08 10:43:05.524315136,3.03406215,1.78504608271622
2025-01-08 10:43:05.534439168,2.84627652,1.785151876265199
2025-01-08 10:43:05.544338944,2.74953032,1.7846193491416162
2025-01-08 10:43:05.554377984,2.9135704,1.7834485869719876
2025-01-08 10:43:05.564427008,3.15472555,1.7816400701111248
2025-01-08 10:43:05.574358016,3.04491806,1.7791946733638941
2025-01-08 10:43:05.584316928,2.46366954,1.7761136654595246
2025-01-08 10:43:05.594392064,1.8378973,1.7723987082787862
2025-01-08 10:43:05.605081088,1.72722363,1.7680518558344755
2025-01-08 10:43:05.614510080,2.00380278,1.7630755530058477
2025-01-08 10:43:05.624356864,2.0851388,1.7574726340277589
2025-01-08 10:43:05.634484992,1.83609128,1.7512463207354578
2025-01-08 10:43:05.644374016,1.54487503,1.744400220566125
2025-01-08 10:43:05.654362880,1.37026119,1.736938324318413
2025-01-08 10:43:05.664462080,1.26342797,1.7288650036713893
2025-01-08 10:43:05.674459904,1.23619199,1.720185008464451
2025-01-08 10:43:05.684484864,1.19040442,1.7109034637399372
2025-01-08 10:43:05.694420992,1.09916782,1.7010258665503022
2025-01-08 10:43:05.704544000,1.00756121,1.6905580825318793
2025-01-08 10:43:05.714541056,0.94338977,1.6795063422474183
2025-01-08 10:43:05.724463104,0.88049018,1.667877237299715
2025-01-08 10:43:05.734340864,0.84812719,1.6556777162188105
2025-01-08 10:43:05.745359872,0.89465749,1.6429150801253891
2025-01-08 10:43:05.754436096,0.98323041,1.629596978173131
2025-01-08 10:43:05.764414976,1.06708956,1.6157314027729353
2025-01-08 10:43:05.774497024,1.11528492,1.6013266846020666
2025-01-08 10:43:05.784562944,1.2098726,1.5863914874014104
2025-01-08 10:43:05.794836992,1.43820453,1.5709348025641654
2025-01-08 10:43:05.804624128,1.71103203,1.554965943519441
2025-01-08 10:43:05.814511104,1.98941672,1.5384945399143417
2025-01-08 10:43:05.824489216,1.98886979,1.5215305315982828
2025-01-08 10:43:05.834552064,1.48919487,1.504084162413366
2025-01-08 10:43:05.844595968,1.09733963,1.486165973794816
2025-01-08 10:43:05.854567936,1.15745127,1.4677867981855608
2025-01-08 10:43:05.864666880,1.51087403,1.4489577522691839
2025-01-08 10:43:05.874579968,1.72316206,1.4296902300255856
2025-01-08 10:43:05.884599040,1.54414392,1.4099958956138006
2025-01-08 10:43:05.894685952,1.23165989,1.3898866760865405
2025-01-08 10:43:05.904619008,1.0188483,1.3693747539411196
2025-01-08 10:43:05.914849024,0.93286538,1.3484725595115579
2025-01-08 10:43:05.924658944,1.0024991,1.3271927632067186
2025-01-08 10:43:05.934656000,1.11675441,1.305548267599471
2025-01-08 10:43:05.944657152,1.11891603,1.2835521993719416
2025-01-08 10:43:05.954632960,0.96863699,1.2612179011220208
2025-01-08 10:43:05.964647168,0.73633713,1.2385589230363736
2025-01-08 10:43:05.974477056,0.71551681,1.2155890144352917
2025-01-08 10:43:05.984646144,1.09788883,1.1923221151948082
2025-01-08 10:43:05.994715904,1.64845347,1.1687723470515645
2025-01-08 10:43:06.004848128,1.98473096,1.1449540047960045
2025-01-08 10:43:06.014859008,1.80354106,1.1208815473595328
2025-01-08 10:43:06.024966912,1.44649959,1.096569588801348
2025-01-08 10:43:06.035052032,1.38945234,1.072032889200716
2025-01-08 10:43:06.044868096,1.50417125,1.0472863454605181
2025-01-08 10:43:06.054910976,1.48019934,1.0223449820279518
2025-01-08 10:43:06.064941056,1.2732017,0.9972239415383248
2025-01-08 10:43:06.074935040,1.05890441,0.9719384753879232
2025-01-08 10:43:06.084896000,0.96454769,0.946503934241981
2025-01-08 10:43:06.094860032,1.0117979,0.9209357584838115
2025-01-08 10:43:06.104958976,1.13572097,0.895249468611213
2025-01-08 10:43:06.114886144,1.22413158,0.8694606555862647
2025-01-08 10:43:06.124867072,1.20937729,0.8435849711446906
2025-01-08 10:43:06.134818048,1.111956,0.8176381180709544
2025-01-08 10:43:06.144727040,0.97526592,0.7916358404453054
2025-01-08 10:43:06.154714112,0.83527851,0.7655939138689786
2025-01-08 10:43:06.164832000,0.71306175,0.739528135673782
2025-01-08 10:43:06.174839040,0.59590763,0.7134543151223045
2025-01-08 10:43:06.184876032,0.4656086,0.6873882636049807
2025-01-08 10:43:06.194857984,0.3399725,0.6613457848402453
2025-01-08 10:43:06.204899072,0.22864866,0.6353426650840105
2025-01-08 10:43:06.214902016,0.13134396,0.6093946633546802
2025-01-08 10:43:06.224957952,0.03940398,0.5835175016799148
2025-01-08 10:43:06.234904064,-0.060471,0.5577268553713236
2025-01-08 10:43:06.244851200,-0.16578805,0.5320383433332584
2025-01-08 10:43:06.254874880,-0.25651735,0.5064675184118441
2025-01-08 10:43:06.264923136,-0.3408168,0.48102985779035534
2025-01-08 10:43:06.274921984,-0.45288253,0.45574075343701576
2025-01-08 10:43:06.284986112,-0.57024854,0.43061550261125336
2025-01-08 10:43:06.295013888,-0.66308707,0.4056692984344098
2025-01-08 10:43:06.305051136,-0.72997183,0.3809172205308507
2025-01-08 10:43:06.314945024,-0.78788489,0.35637422574537375
2025-01-08 10:43:06.325367808,-0.84919518,0.33205513894276256
2025-01-08 10:43:06.334928896,-0.9177103,0.3079746438952699
2025-01-08 10:43:06.344914944,-0.98025006,0.28414727426375774
2025-01-08 10:43:06.356257024,-1.03138268,0.26058740467815333
2025-01-08 10:43:06.364934912,-1.07389593,0.23730924192281364
2025-01-08 10:43:06.374845952,-1.09326684,0.2143268162323184
2025-01-08 10:43:06.384937984,-1.0761497,0.19165397270312878
2025-01-08 10:43:06.398287104,-1.02863741,0.16930436282648378
2025-01-08 10:43:06.404932096,-0.96966463,0.1472914361478071
2025-01-08 10:43:06.415126016,-0.91560566,0.12562843205782181
2025-01-08 10:43:06.425185792,-0.86379176,0.10432837172047771
2025-01-08 10:43:06.435158016,-0.81193745,0.08340405014269699
2025-01-08 10:43:06.445091840,-0.75757766,0.06286802839085937
2025-01-08 10:43:06.454888960,-0.68080765,0.04273262595883821
2025-01-08 10:43:06.465164800,-0.56695485,0.023009913292297315
2025-01-08 10:43:06.474952960,-0.39945006,0.0037117044738627517
2025-01-08 10:43:06.484838912,-0.14826959,-0.015150449926340055
2025-01-08 10:43:06.494905088,0.22403491,-0.03356526983039136
2025-01-08 10:43:06.504966912,0.81992388,-0.05152175245825495
2025-01-08 10:43:06.514988032,1.53974724,-0.06900917895526863
2025-01-08 10:43:06.525348864,1.79696667,-0.08601712083741636
2025-01-08 10:43:06.535019008,1.33295846,-0.10253544625046279
2025-01-08 10:43:06.545083904,0.72771358,-0.11855432603916188
2025-01-08 10:43:06.555151104,0.36748034,-0.1340642396228771
2025-01-08 10:43:06.565270784,0.12621981,-0.14905598067407408
2025-01-08 10:43:06.575233024,-0.0702334,-0.163520662596293
2025-01-08 10:43:06.585180928,-0.18573099,-0.17744972379831764
2025-01-08 10:43:06.595233792,-0.1714645,-0.1908349327614165
2025-01-08 10:43:06.605463040,-0.03272897,-0.20366839289665614
2025-01-08 10:43:06.615700992,0.13673246,-0.21594254718942502
2025-01-08 10:43:06.625220096,0.24604875,-0.22765018262845607
2025-01-08 10:43:06.635222784,0.28383046,-0.23878443441676767
2025-01-08 10:43:06.645235968,0.29184139,-0.24933878996209644
2025-01-08 10:43:06.655224064,0.29819417,-0.259307092644531
2025-01-08 10:43:06.665335808,0.30298001,-0.26868354535920996
2025-01-08 10:43:06.675200000,0.29994631,-0.27746271383209514
2025-01-08 10:43:06.685288960,0.30139351,-0.28563952970696993
2025-01-08 10:43:06.695291136,0.30910009,-0.2932092934019779
2025-01-08 10:43:06.705300992,0.30175614,-0.30016767673415473
2025-01-08 10:43:06.715248128,0.26368892,-0.30651072531056506
2025-01-08 10:43:06.725260032,0.2003603,-0.3122348606848046
2025-01-08 10:43:06.736224000,0.12421983,-0.3173368822777856
2025-01-08 10:43:06.745285888,0.06404674,-0.32181396906187054
2025-01-08 10:43:06.755314944,0.02848601,-0.32566368100757764
2025-01-08 10:43:06.765570048,0.03106612,-0.32888396029223593
2025-01-08 10:43:06.775397120,0.04695928,-0.33147313227011693
2025-01-08 10:43:06.785423104,0.03933805,-0.33342990620372837
2025-01-08 10:43:06.795641856,-0.00214297,-0.3347533757561176
2025-01-08 10:43:06.805305088,-0.0565533,-0.3354430192441595
2025-01-08 10:43:06.815279104,-0.09249955,-0.33549869965299706
2025-01-08 10:43:06.825287936,-0.10425127,-0.33492066441191976
2025-01-08 10:43:06.835506944,-0.11322421,-0.33370954493214455
2025-01-08 10:43:06.845359104,-0.12910581,-0.3318663559070928
2025-01-08 10:43:06.855299840,-0.14193815,-0.3293924943759408
2025-01-08 10:43:06.865425152,-0.13620079,-0.32628973855133325
2025-01-08 10:43:06.875318016,-0.11121258,-0.32256024641233366
2025-01-08 10:43:06.885416960,-0.07216138,-0.31820655406381537
2025-01-08 10:43:06.895602944,-0.0362255,-0.3132315738636516
2025-01-08 10:43:06.905389056,-0.01851028,-0.30763859231920754
2025-01-08 10:43:06.915582976,-0.0170947,-0.3014312677547937
2025-01-08 10:43:06.925405952,-0.01715916,-0.29461362775186056
2025-01-08 10:43:06.935472128,-0.00920099,-0.2871900663638888
2025-01-08 10:43:06.945591808,0.00506777,-0.2791653411080456
2025-01-08 10:43:06.956342016,0.01620743,-0.2705445697358302
2025-01-08 10:43:06.965550848,0.01284337,-0.26133322678506504
2025-01-08 10:43:06.975603968,0.0068796,-0.25153713991573323
2025-01-08 10:43:06.985614080,0.01475972,-0.24116248603228224
2025-01-08 10:43:06.995642880,0.02999482,-0.2302157871951635
2025-01-08 10:43:07.005608192,0.03078416,-0.21870390632449843
2025-01-08 10:43:07.015753984,0.02054968,-0.2066340426988883
2025-01-08 10:43:07.025701120,0.02030596,-0.19401372725251945
2025-01-08 10:43:07.035628032,0.03350076,-0.18085081767383313
2025-01-08 10:43:07.045720064,0.04268694,-0.1671534933091484
2025-01-08 10:43:07.055620864,0.02596369,-0.15293024987475617
2025-01-08 10:43:07.065730048,-0.00662273,-0.1381898939811053
2025-01-08 10:43:07.075752960,-0.0395962,-0.12294153747282476
2025-01-08 10:43:07.085565952,-0.0719012,-0.10719459158843558
2025-01-08 10:43:07.095591936,-0.10134789,-0.09095876094371039
2025-01-08 10:43:07.105544192,-0.13218093,-0.07424403734274684
2025-01-08 10:43:07.115479040,-0.17608905,-0.05706069342092763
2025-01-08 10:43:07.125529088,-0.21357512,-0.039419276124028756
2025-01-08 10:43:07.138700032,-0.19569117,-0.02133060002784895
2025-01-08 10:43:07.145474816,-0.10306811,-0.0028057405028104696
2025-01-08 10:43:07.155901952,0.06321883,0.016143973271911412
2025-01-08 10:43:07.165832960,0.29929161,0.03550696544010255
2025-01-08 10:43:07.175774208,0.56372619,0.055271420741338326
2025-01-08 10:43:07.185772032,0.7943244,0.0754252919201328
2025-01-08 10:43:07.195710976,0.91197038,0.09595630726652654
2025-01-08 10:43:07.205666048,0.92013556,0.11685197828316124
2025-01-08 10:43:07.215596032,0.96418065,0.13809960747381864
2025-01-08 10:43:07.225825024,1.09637022,0.15968629624833114
2025-01-08 10:43:07.235644160,1.28017223,0.18159895293871617
2025-01-08 10:43:07.245707008,1.34048009,0.20382430092131076
2025-01-08 10:43:07.255692032,1.19938946,0.22634888683964619
2025-01-08 10:43:07.265760000,1.02784157,0.2491590889227308
2025-01-08 10:43:07.275706880,0.94518584,0.2722411253933712
2025-01-08 10:43:07.285656064,0.886805,0.2955810629611155
2025-01-08 10:43:07.295737856,0.76182312,0.3191648253943509
2025-01-08 10:43:07.305812992,0.56795639,0.34297820216606434
2025-01-08 10:43:07.315815936,0.36477923,0.36700685716772663
2025-01-08 10:43:07.325787136,0.17787832,0.39123633748573633
2025-01-08 10:43:07.335891968,0.0340116,0.41565208223483263
2025-01-08 10:43:07.345868032,-0.05909353,0.4402394314428587
2025-01-08 10:43:07.355827968,-0.13718653,0.4649836349812428
2025-01-08 10:43:07.365772032,-0.18508846,0.4898698615355417
2025-01-08 10:43:07.376622080,-0.17169386,0.5148832076103858
2025-01-08 10:43:07.385863168,-0.12513757,0.540008706563151
2025-01-08 10:43:07.395884032,-0.10314715,0.5652313376606776
2025-01-08 10:43:07.406071040,-0.12418479,0.5905360351533648
2025-01-08 10:43:07.415809024,-0.16423571,0.6159076973609547
2025-01-08 10:43:07.425914880,-0.15368396,0.6413311957643403
2025-01-08 10:43:07.435972864,-0.07479131,0.6667913840977403
2025-01-08 10:43:07.445890048,0.05847025,0.6922731074355889
2025-01-08 10:43:07.455851008,0.17003894,0.7177612112685128
2025-01-08 10:43:07.465953024,0.21706492,0.743240550562787
2025-01-08 10:43:07.475837952,0.20853841,0.7686959987976881
2025-01-08 10:43:07.485955840,0.18031102,0.7941124569751827
2025-01-08 10:43:07.495976960,0.18186319,0.8194748625964332
2025-01-08 10:43:07.506046976,0.20375037,0.8447681985996283
2025-01-08 10:43:07.516001024,0.18175936,0.8699775022536844
2025-01-08 10:43:07.525949952,0.15075964,0.8950878740024195
2025-01-08 10:43:07.535974912,0.16159201,0.9200844862538212
2025-01-08 10:43:07.546003968,0.16927052,0.944952592109109
2025-01-08 10:43:07.556006912,0.15137804,0.9696775340263184
2025-01-08 10:43:07.566017024,0.15630716,0.9942447524132051
2025-01-08 10:43:07.576071936,0.2140407,1.0186397941443162
2025-01-08 10:43:07.586096896,0.25503534,1.0428483209971504
2025-01-08 10:43:07.596000000,0.2400831,1.0668561180023721
2025-01-08 10:43:07.605931008,0.18505877,1.0906491017031412
2025-01-08 10:43:07.618285056,0.07022637,1.114213328318661
2025-01-08 10:43:07.625972992,-0.09594452,1.1375350018071486
2025-01-08 10:43:07.636017152,-0.24378037,1.1606004818234854
2025-01-08 10:43:07.645910016,-0.336438,1.1833962915669023
2025-01-08 10:43:07.656014080,-0.44666296,1.2059091255141259
2025-01-08 10:43:07.666085888,-0.63424009,1.2281258570335054
2025-01-08 10:43:07.676152064,-0.89375627,1.2500335458757186
2025-01-08 10:43:07.686242048,-1.18064392,1.2716194455367535
2025-01-08 10:43:07.696151040,-1.43775809,1.2928710104889536
2025-01-08 10:43:07.706104064,-1.65279627,1.3137759032760041
2025-01-08 10:43:07.716179968,-1.83637381,1.3343220014678447
2025-01-08 10:43:07.726095872,-1.90980518,1.3544974044715836
2025-01-08 10:43:07.736030208,-1.91382337,1.3742904401945988
2025-01-08 10:43:07.745961984,-1.85035944,1.3936896715561093
2025-01-08 10:43:07.756001024,-1.74380398,1.4126839028436116
2025-01-08 10:43:07.766120960,-1.61281896,1.431262185910684
2025-01-08 10:43:07.776064000,-1.3462218,1.4494138262127627
2025-01-08 10:43:07.787324928,-0.99342328,1.467128388677626
2025-01-08 10:43:07.796310016,-0.6192807,1.484395703407411
2025-01-08 10:43:07.806137088,-0.10963219,1.5012058712091252
2025-01-08 10:43:07.816173056,0.733055,1.5175492689507184
2025-01-08 10:43:07.826253824,2.09550953,1.533416554739907
2025-01-08 10:43:07.836518144,3.45680833,1.5487986729230552
2025-01-08 10:43:07.846190080,4.00189781,1.5636868589015476
2025-01-08 10:43:07.856232960,4.24664211,1.578072643763206
2025-01-08 10:43:07.866312960,5.1748395,1.5919478587264202
2025-01-08 10:43:07.876292096,5.89958668,1.6053046393948027
2025-01-08 10:43:07.886277888,6.26333618,1.6181354298202932
2025-01-08 10:43:07.896323840,6.6699338,1.6304329863727562
2025-01-08 10:43:07.906196992,6.89071703,1.6421903814142698
2025-01-08 10:43:07.916451072,6.72609711,1.6534010067763973
2025-01-08 10:43:07.926507008,6.17733097,1.6640585770388974
2025-01-08 10:43:07.936404992,5.36364841,1.6741571326084228
2025-01-08 10:43:07.946475008,4.54179859,1.683691042595921
2025-01-08 10:43:07.956535040,3.89585924,1.6926550074915467
2025-01-08 10:43:07.966456832,3.80440712,1.7010440616360638
2025-01-08 10:43:07.976494080,3.57868195,1.7088535754878083
2025-01-08 10:43:07.986472960,3.19100213,1.7160792576844375
2025-01-08 10:43:07.996561920,2.7834003,1.722717156898819
2025-01-08 10:43:08.006396160,2.56763792,1.7287636634885304
2025-01-08 10:43:08.016498176,2.56222057,1.7342155109385908
2025-01-08 10:43:08.026467072,2.60262346,1.7390697770971542
2025-01-08 10:43:08.036443904,2.73023295,1.743323885204047
2025-01-08 10:43:08.046499072,2.85271358,1.746975604712136
2025-01-08 10:43:08.056283904,2.76113343,1.7500230519016697
2025-01-08 10:43:08.066288896,2.49708629,1.7524646902878398
2025-01-08 10:43:08.076468992,2.34095716,1.7542993308219517
2025-01-08 10:43:08.086307072,2.48097515,1.7555261318867157
2025-01-08 10:43:08.096393984,2.78795433,1.7561445990862983
2025-01-08 10:43:08.106522112,2.88842678,1.7561545848318894
2025-01-08 10:43:08.116540928,2.64495707,1.7555562877236819
2025-01-08 10:43:08.126483968,2.34731674,1.7543502517302667
2025-01-08 10:43:08.136567040,2.19400716,1.7525373651665785
2025-01-08 10:43:08.146515968,2.09507895,1.7501188594716428
2025-01-08 10:43:08.156454912,1.92170954,1.7470963077874964
2025-01-08 10:43:08.166536192,1.68046546,1.743471623340773
2025-01-08 10:43:08.176551936,1.47211444,1.7392470576285588
2025-01-08 10:43:08.186486016,1.37544847,1.7344251984102397
2025-01-08 10:43:08.197639936,1.34896183,1.7290089675071738
2025-01-08 10:43:08.206664960,1.261518,1.7230016184121413
2025-01-08 10:43:08.216603904,1.11007357,1.7164067337106161
2025-01-08 10:43:08.226452992,0.98775387,1.7092282223160429
2025-01-08 10:43:08.236531968,0.93586111,1.701470316521373
2025-01-08 10:43:08.246552064,0.93475223,1.693137568869242
2025-01-08 10:43:08.257164032,0.9663344,1.6842348488432748
2025-01-08 10:43:08.266580224,1.0118165,1.6747673393830829
2025-01-08 10:43:08.276652032,1.04984307,1.6647405332256444
2025-01-08 10:43:08.286684928,1.08602941,1.6541602290758266
2025-01-08 10:43:08.296515072,1.17906082,1.64303252760894
2025-01-08 10:43:08.306772992,1.31696224,1.6313638273082536
2025-01-08 10:43:08.316611072,1.50853205,1.6191608201405532
2025-01-08 10:43:08.326626048,1.73303795,1.6064304870728512
2025-01-08 10:43:08.336636160,1.80380046,1.5931800934334874
2025-01-08 10:43:08.346529024,1.66966164,1.5794171841209161
2025-01-08 10:43:08.356669952,1.72315049,1.5651495786635616
2025-01-08 10:43:08.366641920,2.02691245,1.5503853661342135
2025-01-08 10:43:08.376636928,2.19009185,1.5351328999224796
2025-01-08 10:43:08.386635008,1.99731958,1.5194007923689234
2025-01-08 10:43:08.396744960,1.6780045,1.503197909264551
2025-01-08 10:43:08.406803968,1.49755633,1.486533364219395
2025-01-08 10:43:08.416707072,1.45095003,1.4694165129040062
2025-01-08 10:43:08.426668032,1.47978258,1.4518569471677227
2025-01-08 10:43:08.436702976,1.59089267,1.433864489037644
2025-01-08 10:43:08.446683904,1.58599794,1.415449184602296
2025-01-08 10:43:08.456718080,1.41118276,1.3966212977840262
2025-01-08 10:43:08.466753024,1.4393611,1.3773913040042165
2025-01-08 10:43:08.476782080,1.74290466,1.3577698837454535
2025-01-08 10:43:08.486819072,2.01324534,1.3377679160148312
2025-01-08 10:43:08.496748032,2.02565908,1.3173964717126183
2025-01-08 10:43:08.506944768,1.89243686,1.2966668069105431
2025-01-08 10:43:08.516870144,1.75909495,1.275590356044002
2025-01-08 10:43:08.526763008,1.62339008,1.2541787250225198
2025-01-08 10:43:08.536768000,1.50867999,1.2324436842628232
2025-01-08 10:43:08.546857216,1.43098974,1.210397161648923
2025-01-08 10:43:08.556781056,1.31981158,1.18805123542361
2025-01-08 10:43:08.566834944,1.18407249,1.1654181270158104
2025-01-08 10:43:08.576851968,1.06793129,1.1425101938082505
2025-01-08 10:43:08.586899968,1.02167439,1.1193399218499003
2025-01-08 10:43:08.596914176,1.06628799,1.0959199185176862
2025-01-08 10:43:08.606821888,1.11715889,1.0722629051319594
2025-01-08 10:43:08.617285888,1.06104803,1.0483817095302286
2025-01-08 10:43:08.626793984,0.921866,1.0242892586036552
2025-01-08 10:43:08.636844032,0.77499133,0.9999985708008301
2025-01-08 10:43:08.646895872,0.66102266,0.9755227486033239
2025-01-08 10:43:08.656878080,0.56705117,0.9508749709775259
2025-01-08 10:43:08.666894848,0.47863233,0.9260684858072584
2025-01-08 10:43:08.676950016,0.40931493,0.9011166023116604
2025-01-08 10:43:08.686964992,0.36033684,0.8760326834528057
2025-01-08 10:43:08.696888832,0.30806983,0.850830138337523
2025-01-08 10:43:08.706903808,0.23314059,0.825522414617851
2025-01-08 10:43:08.716976896,0.13379014,0.8001229908945554
2025-01-08 10:43:08.726939904,0.0152635,0.7746453691281028
2025-01-08 10:43:08.736887040,-0.10694015,0.749103067061462
2025-01-08 10:43:08.747000064,-0.22175676,0.7235096106590816
2025-01-08 10:43:08.756918016,-0.31585741,0.6978785265663503
2025-01-08 10:43:08.766930176,-0.3923167,0.6722233345938259
2025-01-08 10:43:08.777089024,-0.46652806,0.6465575402304745
2025-01-08 10:43:08.787065088,-0.53930652,0.6208946271901249
2025-01-08 10:43:08.797039872,-0.60128045,0.5952480499953067
2025-01-08 10:43:08.806947072,-0.66176063,0.5696312266025935
2025-01-08 10:43:08.816971008,-0.73234695,0.5440575310735285
2025-01-08 10:43:08.826956032,-0.79606777,0.5185402862951629
2025-01-08 10:43:08.837012992,-0.8391487,0.4930927567541899
2025-01-08 10:43:08.846996992,-0.86085534,0.4677281413685992
2025-01-08 10:43:08.857060864,-0.87916231,0.4424595663807327
2025-01-08 10:43:08.867065856,-0.90060002,0.41730007831555427
2025-01-08 10:43:08.877244928,-0.9189986,0.39226263700789876
2025-01-08 10:43:08.887436032,-0.93353361,0.36736010870240304
2025-01-08 10:43:08.897253120,-0.94702721,0.3426052592297527
2025-01-08 10:43:08.907265024,-0.9609499,0.31801074726282585
2025-01-08 10:43:08.917234944,-0.97581428,0.29358911765624174
2025-01-08 10:43:08.927088128,-0.97910607,0.2693527948727563
2025-01-08 10:43:08.937133056,-0.96999991,0.24531407649988166
2025-01-08 10:43:08.947175936,-0.94546169,0.2214851268600294
2025-01-08 10:43:08.958928128,-0.91403478,0.19787797071741153
2025-01-08 10:43:08.967337984,-0.88933879,0.17450448708485602
2025-01-08 10:43:08.977293056,-0.84611821,0.15137640313361897
2025-01-08 10:43:08.987275008,-0.76208264,0.12850528820919793
2025-01-08 10:43:08.997123072,-0.6232394,0.1059025479560774
2025-01-08 10:43:09.007129856,-0.40379655,0.08357941855425187
2025-01-08 10:43:09.018439936,-0.0783236,0.06154696107029754
2025-01-08 10:43:09.027087872,0.39204639,0.03981605592567443
2025-01-08 10:43:09.037074176,1.0459106,0.01839739748486933
2025-01-08 10:43:09.047136000,1.66502059,-0.0026985112341057597
2025-01-08 10:43:09.057063168,1.53112626,-0.023461363724423617
2025-01-08 10:43:09.067107840,0.91692019,-0.04388105502800718
2025-01-08 10:43:09.077302016,0.53824258,-0.06394768664369266
2025-01-08 10:43:09.087336960,0.37194908,-0.08365157130381144
2025-01-08 10:43:09.097234944,0.18100327,-0.10298323761710422
2025-01-08 10:43:09.107152896,-0.08656657,-0.12193343457596877
2025-01-08 10:43:09.117352960,-0.2891776,-0.14049313592613166
2025-01-08 10:43:09.127379968,-0.34103358,-0.15865354439692647
2025-01-08 10:43:09.137317888,-0.30284488,-0.17640609579044778
2025-01-08 10:43:09.147236096,-0.23750275,-0.19374246292794403
2025-01-08 10:43:09.157323008,-0.1544596,-0.21065455945190137
2025-01-08 10:43:09.167314944,-0.07692653,-0.22713454348236753
2025-01-08 10:43:09.177294080,-0.0250476,-0.24317482112614627
2025-01-08 10:43:09.187354112,0.00178409,-0.2587680498375964
2025-01-08 10:43:09.197483008,0.02659339,-0.2739071416298567
2025-01-08 10:43:09.207325952,0.05808342,-0.28858526613540353
2025-01-08 10:43:09.217334016,0.1122734,-0.302795853514955
2025-01-08 10:43:09.227396864,0.18857843,-0.31653259721381494
2025-01-08 10:43:09.237632000,0.24970096,-0.32978945656484654
2025-01-08 10:43:09.247378176,0.2613138,-0.3425606592373577
2025-01-08 10:43:09.257376000,0.21280199,-0.35484070353127495
2025-01-08 10:43:09.267357184,0.12717575,-0.3666243605160637
2025-01-08 10:43:09.277470208,0.05418152,-0.37790667601395883
2025-01-08 10:43:09.287523072,0.01285344,-0.38868297242714794
2025-01-08 10:43:09.297426944,-0.00381434,-0.39894885040864403
2025-01-08 10:43:09.307357184,-0.00550729,-0.4087001903766775
2025-01-08 10:43:09.317463040,0.0049631,-0.41793315387252067
2025-01-08 10:43:09.327483904,0.01573706,-0.42664418476175275
2025-01-08 10:43:09.337483776,0.02518362,-0.4348300102790545
2025-01-08 10:43:09.347405056,0.02728873,-0.4424876419167167
2025-01-08 10:43:09.357511936,0.02350801,-0.44961437615712624
2025-01-08 10:43:09.367415040,0.03962356,-0.45620779504958364
2025-01-08 10:43:09.377470976,0.081375,-0.46226576663189173
2025-01-08 10:43:09.387476992,0.12727112,-0.46778644519723317
2025-01-08 10:43:09.397492992,0.15442789,-0.47276827140694355
2025-01-08 10:43:09.407630848,0.1469444,-0.47720997224987066
2025-01-08 10:43:09.417541888,0.11435753,-0.4811105608490813
2025-01-08 10:43:09.427846912,0.07019818,-0.48446933611676923
2025-01-08 10:43:09.438425088,0.01763439,-0.4872858822582918
2025-01-08 10:43:09.447485952,-0.04123437,-0.4895600681263373
2025-01-08 10:43:09.457540864,-0.09442633,-0.49129204642630603
2025-01-08 10:43:09.467524096,-0.1287083,-0.49248225277406726
2025-01-08 10:43:09.478044160,-0.14444131,-0.493131404607317
2025-01-08 10:43:09.487603968,-0.15026492,-0.49324049995184505
2025-01-08 10:43:09.500623104,-0.1505174,-0.49281081604408966
2025-01-08 10:43:09.508064000,-0.15006119,-0.49184390781142334
2025-01-08 10:43:09.517751040,-0.15151501,-0.4903416062116864
2025-01-08 10:43:09.528089088,-0.15442425,-0.48830601643355326
2025-01-08 10:43:09.537756928,-0.16557646,-0.48573951595938053
2025-01-08 10:43:09.547544832,-0.19514108,-0.4826447524922492
2025-01-08 10:43:09.557679872,-0.24122488,-0.47902464174898124
2025-01-08 10:43:09.567581952,-0.29215628,-0.47488236512096776
2025-01-08 10:43:09.577649152,-0.33446199,-0.47022136720470903
2025-01-08 10:43:09.587704064,-0.36006784,-0.4650453532040224
2025-01-08 10:43:09.597788160,-0.36715543,-0.4593582862059366
2025-01-08 10:43:09.607673856,-0.36013502,-0.4531643843323375
2025-01-08 10:43:09.617957120,-0.34084576,-0.4464681177694948
2025-01-08 10:43:09.627741184,-0.31658489,-0.43927420567764264
2025-01-08 10:43:09.637883904,-0.29580933,-0.43158761298283976
2025-01-08 10:43:09.647756032,-0.28130358,-0.42341354705339074
2025-01-08 10:43:09.657711872,-0.26554435,-0.4147574542631426
2025-01-08 10:43:09.667737856,-0.24942142,-0.40562501644403226
2025-01-08 10:43:09.677745152,-0.24013817,-0.39602214723029444
2025-01-08 10:43:09.687824896,-0.23454446,-0.3859549882967839
2025-01-08 10:43:09.697758976,-0.23259383,-0.3754299054939057
2025-01-08 10:43:09.707731968,-0.23966533,-0.36445348488169105
2025-01-08 10:43:09.717796096,-0.26312369,-0.35303252866558277
2025-01-08 10:43:09.727756032,-0.27117544,-0.34117405103654197
2025-01-08 10:43:09.737819904,-0.25886691,-0.3288852739181135
2025-01-08 10:43:09.747834880,-0.24634224,-0.31617362262311466
2025-01-08 10:43:09.757872128,-0.23937827,-0.30304672142265887
2025-01-08 10:43:09.767757056,-0.23899251,-0.2895123890302354
2025-01-08 10:43:09.777812992,-0.23738283,-0.27557863400360383
2025-01-08 10:43:09.787751936,-0.22414154,-0.26125365006728113
2025-01-08 10:43:09.797806080,-0.19715923,-0.24654581135843157
2025-01-08 10:43:09.807806976,-0.1632883,-0.23146366759897566
2025-01-08 10:43:09.817990912,-0.13998944,-0.2160159391967696
2025-01-08 10:43:09.828012032,-0.1313467,-0.20021151227871628
2025-01-08 10:43:09.838308096,-0.13118601,-0.18405943365868274
2025-01-08 10:43:09.848084992,-0.12994641,-0.16756890574312383
2025-01-08 10:43:09.858094848,-0.07127303,-0.15074928137731586
2025-01-08 10:43:09.868022016,0.09416962,-0.13361005863511471
2025-01-08 10:43:09.877950976,0.36319935,-0.11616087555517157
2025-01-08 10:43:09.888099840,0.71490616,-0.09841150482653517
2025-01-08 10:43:09.898076160,1.12539077,-0.0803718484265893
2025-01-08 10:43:09.908080128,1.46827626,-0.062051932214262036
2025-01-08 10:43:09.918093824,1.53608441,-0.04346190048146599
2025-01-08 10:43:09.928256000,1.40400875,-0.024612010465712788
2025-01-08 10:43:09.937957888,1.26737201,-0.0055126268268548585
2025-01-08 10:43:09.948008960,1.18245351,0.013825783909094436
2025-01-08 10:43:09.957943040,1.18505406,0.033392658936120964
2025-01-08 10:43:09.967809792,1.19128191,0.05317734478140524
2025-01-08 10:43:09.977958912,1.08609557,0.07316910294262083
2025-01-08 10:43:09.988007936,0.91944277,0.09335711554640512
2025-01-08 10:43:09.997988096,0.81668669,0.11373049102509124
2025-01-08 10:43:10.007963904,0.76754177,0.13427826980878188
2025-01-08 10:43:10.017977856,0.70253795,0.15498943002988308
2025-01-08 10:43:10.028069888,0.58546388,0.17585289323720182
2025-01-08 10:43:10.037991936,0.43884242,0.19685753011675125
2025-01-08 10:43:10.048055808,0.30001312,0.21799216621640347
2025-01-08 10:43:10.059250176,0.16905153,0.23924558767155885
2025-01-08 10:43:10.071464960,0.03489286,0.26060654692901564
2025-01-08 10:43:10.081391104,-0.10611212,0.282063768466242
2025-01-08 10:43:10.088717056,-0.22599578,0.30360595450328004
2025-01-08 10:43:10.098094848,-0.30756581,0.32522179070451734
2025-01-08 10:43:10.107988992,-0.35325617,0.3468999518676136
2025-01-08 10:43:10.117982976,-0.36947012,0.3686291075968631
2025-01-08 10:43:10.128112128,-0.3736909,0.39039792795831635
2025-01-08 10:43:10.138055936,-0.3621738,0.4121950891140173
2025-01-08 10:43:10.148118016,-0.33609551,0.4340092789327194
2025-01-08 10:43:10.158242816,-0.30702394,0.4558292025744928
2025-01-08 10:43:10.168114944,-0.27782369,0.4776435880466517
2025-01-08 10:43:10.178103808,-0.2467944,0.4994411917284735
2025-01-08 10:43:10.188139008,-0.20548451,0.5212108038621969
2025-01-08 10:43:10.198356992,-0.16661674,0.5429412540078378
2025-01-08 10:43:10.208153856,-0.14394033,0.5646214164593791
2025-01-08 10:43:10.218060032,-0.11923802,0.5862402156199386
2025-01-08 10:43:10.228192000,-0.0680297,0.607786631333539
2025-01-08 10:43:10.238224128,0.00125837,0.6292497041711589
2025-01-08 10:43:10.250364928,0.06256753,0.650618540668763
2025-01-08 10:43:10.258297856,0.11392146,0.6718823185150592
2025-01-08 10:43:10.268220928,0.16140413,0.693030291686763
2025-01-08 10:43:10.278192896,0.19942796,0.714051795529189
2025-01-08 10:43:10.288384000,0.2253589,0.7349362517800343
2025-01-08 10:43:10.298192896,0.24479073,0.7556731735342488
2025-01-08 10:43:10.308279040,0.23456103,0.776252170147938
2025-01-08 10:43:10.318260992,0.20151484,0.7966629520792823
2025-01-08 10:43:10.328352000,0.13915986,0.8168953356644928
2025-01-08 10:43:10.338236160,0.05788332,0.8369392478268808
2025-01-08 10:43:10.348228096,-0.00447357,0.8567847307171402
2025-01-08 10:43:10.358344960,-0.04521531,0.8764219462830075
2025-01-08 10:43:10.368684032,-0.0856989,0.8958411807664916
2025-01-08 10:43:10.378289920,-0.14162654,0.9150328491269175
2025-01-08 10:43:10.388230912,-0.23527938,0.9339874993880726
2025-01-08 10:43:10.398240000,-0.35150206,0.9526958169077853
2025-01-08 10:43:10.408310784,-0.47155446,0.9711486285683149
2025-01-08 10:43:10.418353920,-0.554887,0.9893369068859776
2025-01-08 10:43:10.428331008,-0.60701656,1.007251774038475
2025-01-08 10:43:10.438406912,-0.72677308,1.0248845058084406
2025-01-08 10:43:10.448379136,-0.9406305,1.0422265354417701
2025-01-08 10:43:10.458280960,-1.19828892,1.0592694574193382
2025-01-08 10:43:10.468386048,-1.47026408,1.0760050311407614
2025-01-08 10:43:10.478358016,-1.70950127,1.092425184518905
2025-01-08 10:43:10.488387072,-1.86063671,1.108522017483889
2025-01-08 10:43:10.498333952,-1.96878123,1.1242878053953802
2025-01-08 10:43:10.508428032,-2.02800846,1.1397150023620246
2025-01-08 10:43:10.518501120,-2.01397657,1.1547962444668993
2025-01-08 10:43:10.528487936,-1.89282048,1.1695243528979327
2025-01-08 10:43:10.538352896,-1.6288203,1.1838923369822685
2025-01-08 10:43:10.548466944,-1.4304291,1.1978933971236145
2025-01-08 10:43:10.558590976,-1.32007849,1.2115209276416463
2025-01-08 10:43:10.568430848,-1.04376996,1.2247685195126043
2025-01-08 10:43:10.578459136,-0.55061913,1.2376299630102467
2025-01-08 10:43:10.588498944,0.27446067,1.2500992502463895
2025-01-08 10:43:10.598497024,1.57938969,1.2621705776102905
2025-01-08 10:43:10.608519936,3.09941864,1.2738383481062072
2025-01-08 10:43:10.618537984,4.28572369,1.2850971735884724
2025-01-08 10:43:10.628817920,4.47849083,1.2959418768935131
2025-01-08 10:43:10.638504960,4.47828293,1.3063674938682512
2025-01-08 10:43:10.648395008,4.96901989,1.3163692752944018
2025-01-08 10:43:10.658791936,5.33136511,1.3259426887081995
2025-01-08 10:43:10.668572928,5.46399641,1.335083420115164
2025-01-08 10:43:10.678407936,5.3401227,1.3437873755995222
2025-01-08 10:43:10.688433920,4.91031027,1.3520506828279895
2025-01-08 10:43:10.698425088,4.50610733,1.3598696924476212
2025-01-08 10:43:10.708393984,4.08803749,1.3672409793775222
2025-01-08 10:43:10.718457856,3.69193602,1.3741613439942195
2025-01-08 10:43:10.728535808,3.43087196,1.3806278132105683
2025-01-08 10:43:10.738487040,3.13891888,1.3866376414480908
2025-01-08 10:43:10.748496128,2.86743045,1.392188311502699
2025-01-08 10:43:10.758646016,2.64190817,1.3972775353037983
2025-01-08 10:43:10.768451840,2.41618586,1.4019032545667933
2025-01-08 10:43:10.778563072,2.26629663,1.40606364133909
2025-01-08 10:43:10.788610816,2.20825815,1.4097570984397003
2025-01-08 10:43:10.798974976,2.26519489,1.4129822597926205
2025-01-08 10:43:10.808720128,2.33315301,1.4157379906541736
2025-01-08 10:43:10.818887936,2.2422142,1.4180233877345767
2025-01-08 10:43:10.828690944,2.09040165,1.4198377792139985
2025-01-08 10:43:10.838717952,2.07458591,1.4211807246534465
2025-01-08 10:43:10.848694016,2.14390111,1.422052014800842
2025-01-08 10:43:10.858688000,2.23008728,1.4224516712926831
2025-01-08 10:43:10.868880128,2.31800556,1.4223799462517461
2025-01-08 10:43:10.878743808,2.32480431,1.4218373217813003
2025-01-08 10:43:10.888739072,2.21523714,1.4208245093563565
2025-01-08 10:43:10.898695936,2.06083512,1.4193424491125113
2025-01-08 10:43:10.908668928,1.87893927,1.4173923090329728
2025-01-08 10:43:10.918545920,1.73882794,1.414975484034406
2025-01-08 10:43:10.928504832,1.68207645,1.4120935949522595
2025-01-08 10:43:10.938678016,1.62377644,1.4087484874262823
2025-01-08 10:43:10.948641024,1.50595379,1.4049422306869657
2025-01-08 10:43:10.958676224,1.35357118,1.4006771162436822
2025-01-08 10:43:10.968738048,1.19549894,1.3959556564753368
2025-01-08 10:43:10.978617856,1.05286717,1.3907805831243645
2025-01-08 10:43:10.988712192,0.91187477,1.3851548456949514
2025-01-08 10:43:10.998596864,0.77511609,1.3790816097563985
2025-01-08 10:43:11.008593920,0.64307302,1.3725642551525499
2025-01-08 10:43:11.018734080,0.54223263,1.3656063741182802
2025-01-08 10:43:11.028760064,0.47451222,1.3582117693040325
2025-01-08 10:43:11.038813184,0.43198901,1.3503844517094474
2025-01-08 10:43:11.048770816,0.45425928,1.342128638527152
2025-01-08 10:43:11.058819072,0.54930323,1.333448750897806
2025-01-08 10:43:11.068716032,0.69326133,1.3243494115775285
2025-01-08 10:43:11.078912000,0.96009952,1.3148354425188684
2025-01-08 10:43:11.088715008,1.36204767,1.3049118623664997
2025-01-08 10:43:11.098827008,1.72015572,1.2945838838688546
2025-01-08 10:43:11.108792064,1.96831238,1.2838569112069385
2025-01-08 10:43:11.118803968,1.93422782,1.2727365372415977
2025-01-08 10:43:11.128840960,1.66988027,1.2612285406805284
2025-01-08 10:43:11.138813952,1.60280788,1.2493388831663566
2025-01-08 10:43:11.148992000,1.83375847,1.2370737062871366
2025-01-08 10:43:11.158904064,1.9129194,1.2244393285106334
2025-01-08 10:43:11.169069056,1.55908418,1.211442242043798
2025-01-08 10:43:11.179034880,1.17137408,1.198089109618853
2025-01-08 10:43:11.189060864,1.01633012,1.184386761207436
2025-01-08 10:43:11.199038976,0.95163679,1.1703421906642693
2025-01-08 10:43:11.208930048,0.79695219,1.1559625523018553
2025-01-08 10:43:11.218971904,0.84491253,1.1412551573977059
2025-01-08 10:43:11.229029888,1.33032227,1.1262274706356472
2025-01-08 10:43:11.238998784,1.95819271,1.110887106482761
2025-01-08 10:43:11.249016064,2.22299552,1.095241825503537
2025-01-08 10:43:11.259088896,1.87729621,1.079299530612843
2025-01-08 10:43:11.268968960,1.41657627,1.0630682632693302
2025-01-08 10:43:11.279088128,1.23747671,1.0465561996109134
2025-01-08 10:43:11.289055232,1.29825926,1.0297716465339883
2025-01-08 10:43:11.299129856,1.44298255,1.0127230377180603
2025-01-08 10:43:11.309124096,1.49228454,0.9954189295974817
2025-01-08 10:43:11.319039232,1.34935105,0.9778679972820147
2025-01-08 10:43:11.331030016,1.1573956,0.9600790304279413
2025-01-08 10:43:11.339168000,1.01906466,0.9420609290614745
2025-01-08 10:43:11.349175808,0.93209612,0.9238226993562344
2025-01-08 10:43:11.358964992,0.90729266,0.9053734493665582
2025-01-08 10:43:11.368911104,0.91817516,0.886722384718449
2025-01-08 10:43:11.379048192,0.92248929,0.867878804259964
2025-01-08 10:43:11.389126144,0.90953171,0.8488520956728627
2025-01-08 10:43:11.399247872,0.89291495,0.8296517310473565
2025-01-08 10:43:11.409095168,0.87172401,0.8102872624218023
2025-01-08 10:43:11.419201024,0.84182066,0.7907683172892023
2025-01-08 10:43:11.429009920,0.81356639,0.7711045940723815
2025-01-08 10:43:11.440320000,0.79456168,0.7513058575697278
2025-01-08 10:43:11.449115136,0.75424069,0.7313819343733884
2025-01-08 10:43:11.459248896,0.67741615,0.711342708261826
2025-01-08 10:43:11.469064960,0.56843549,0.6911981155686506
2025-01-08 10:43:11.478929152,0.46489841,0.6709581405296497
2025-01-08 10:43:11.489107968,0.39671284,0.6506328106099494
2025-01-08 10:43:11.499079936,0.35443687,0.6302321918132461
2025-01-08 10:43:11.509090048,0.31399339,0.6097663839750552
2025-01-08 10:43:11.519145984,0.24837309,0.5892455160419368
2025-01-08 10:43:11.529165056,0.16528803,0.568679741338651
2025-01-08 10:43:11.539158016,0.07686043,0.5480792328252175
2025-01-08 10:43:11.549114112,-0.01144928,0.5274541783458471
2025-01-08 10:43:11.559174912,-0.09414953,0.5068147758717225
2025-01-08 10:43:11.569256960,-0.16939527,0.48617122873961255
2025-01-08 10:43:11.579139840,-0.26381052,0.4655337408882986
2025-01-08 10:43:11.589207808,-0.36717534,0.44491251209480454
2025-01-08 10:43:11.599289856,-0.45766455,0.42431773321242083
2025-01-08 10:43:11.609231872,-0.52841008,0.40375958141250856
2025-01-08 10:43:11.619153920,-0.58204371,0.38324821543208215
2025-01-08 10:43:11.629584128,-0.63055271,0.3627937708291607
2025-01-08 10:43:11.639168000,-0.67469037,0.3424063552478773
2025-01-08 10:43:11.649240064,-0.71676588,0.3220960436953475
2025-01-08 10:43:11.659315200,-0.77597827,0.3018728738322768
2025-01-08 10:43:11.669408000,-0.85449469,0.2817468412793046
2025-01-08 10:43:11.679353856,-0.93367547,0.2617278949410637
2025-01-08 10:43:11.689428992,-0.99473083,0.24182593234994357
2025-01-08 10:43:11.699407104,-1.04513955,0.22205079503153202
2025-01-08 10:43:11.709382144,-1.08098578,0.20241226389371164
2025-01-08 10:43:11.719432960,-1.09582019,0.1829200546413779
2025-01-08 10:43:11.729617152,-1.0838995,0.16358381321874388
2025-01-08 10:43:11.739557888,-1.06143975,0.14441311128118567
2025-01-08 10:43:11.749524992,-1.04021358,0.12541744169857846
2025-01-08 10:43:11.759557888,-1.01315475,0.10660621409206499
2025-01-08 10:43:11.769485824,-0.98817396,0.08798875040618588
2025-01-08 10:43:11.779713024,-0.95244539,0.0695742805182978
2025-01-08 10:43:11.790617088,-0.89561069,0.05137193788718982
2025-01-08 10:43:11.799535872,-0.81152213,0.033390755242801044
2025-01-08 10:43:11.809411072,-0.70067191,0.01563966031893069
2025-01-08 10:43:11.819454976,-0.57183421,-0.0018725283691825554
2025-01-08 10:43:11.829624064,-0.4190734,-0.01913710570054678
2025-01-08 10:43:11.839559936,-0.22116804,-0.03614548407551429
2025-01-08 10:43:11.849664000,0.05780876,-0.05288919749245518
2025-01-08 10:43:11.859625216,0.46265608,-0.06935990557218442
2025-01-08 10:43:11.869564928,0.99926531,-0.08554939752833558
2025-01-08 10:43:11.879410944,1.45065212,-0.10144959608189172
2025-01-08 10:43:11.889708032,1.42063868,-0.11705256131809853
2025-01-08 10:43:11.899528960,1.01935482,-0.1323504944840102
2025-01-08 10:43:11.912108800,0.67341059,-0.14733574172492575
2025-01-08 10:43:11.919539968,0.44890338,-0.16200079775800513
2025-01-08 10:43:11.929426944,0.21224493,-0.17633830948136478
2025-01-08 10:43:11.942018048,-0.04619539,-0.1903410795169823
2025-01-08 10:43:11.949465088,-0.26014227,-0.20400206968575105
2025-01-08 10:43:11.959755008,-0.38236153,-0.21731440441306
2025-01-08 10:43:11.969462016,-0.40719032,-0.2302713740632874
2025-01-08 10:43:11.979486976,-0.37870425,-0.24286643820162623
2025-01-08 10:43:11.989515008,-0.32871026,-0.25509322878168317
2025-01-08 10:43:11.999645952,-0.28022188,-0.26694555325731883
2025-01-08 10:43:12.009581056,-0.23777413,-0.27841739761721923
2025-01-08 10:43:12.019540992,-0.19751424,-0.28950292934072225
2025-01-08 10:43:12.029445888,-0.16096461,-0.3001965002734479
2025-01-08 10:43:12.039587072,-0.11060154,-0.3104926494213033
2025-01-08 10:43:12.049573888,-0.02977574,-0.32038610566147674
2025-01-08 10:43:12.059602944,0.07457662,-0.32987179036904796
2025-01-08 10:43:12.069595136,0.17560041,-0.3389448199578898
2025-01-08 10:43:12.079505920,0.24857014,-0.3476005083345525
2025-01-08 10:43:12.089636096,0.27977335,-0.35583436926386697
2025-01-08 10:43:12.099832064,0.26506865,-0.36364211864502377
2025-01-08 10:43:12.109723136,0.2140817,-0.37101967669693403
2025-01-08 10:43:12.119729152,0.15095443,-0.3779631700516941
2025-01-08 10:43:12.129707008,0.10204577,-0.384468933755028
2025-01-08 10:43:12.139638016,0.0842188,-0.39053351317260643
2025-01-08 10:43:12.149681152,0.08520865,-0.3961536658011829
2025-01-08 10:43:12.159805184,0.08581346,-0.40132636298351987
2025-01-08 10:43:12.169751040,0.08376944,-0.4060487915261251
2025-01-08 10:43:12.179670016,0.08879393,-0.4103183552188459
2025-01-08 10:43:12.189629952,0.10959786,-0.4141326762554111
2025-01-08 10:43:12.199822848,0.12703121,-0.41748959655406104
2025-01-08 10:43:12.209753088,0.12364888,-0.4203871789774263
2025-01-08 10:43:12.219708928,0.08735281,-0.422823708450877
2025-01-08 10:43:12.229702912,0.03293628,-0.4247976929785948
2025-01-08 10:43:12.239762944,-0.01530808,-0.4263078645566623
2025-01-08 10:43:12.249798144,-0.05062008,-0.42735317998251326
2025-01-08 10:43:12.259685120,-0.07432568,-0.4279328215601251
2025-01-08 10:43:12.269789952,-0.09818155,-0.4280461977003839
2025-01-08 10:43:12.279768832,-0.12540591,-0.42769294341608827
2025-01-08 10:43:12.289745920,-0.14758676,-0.42687292071111915
2025-01-08 10:43:12.299788032,-0.17272013,-0.4255862188633267
2025-01-08 10:43:12.309912064,-0.20750028,-0.4238331546007535
2025-01-08 10:43:12.319851008,-0.24513024,-0.4216142721708428
2025-01-08 10:43:12.329814016,-0.27970076,-0.41893034330234113
2025-01-08 10:43:12.339795200,-0.30588549,-0.41578236705963606
2025-01-08 10:43:12.349787904,-0.32326353,-0.4121715695893413
2025-01-08 10:43:12.359831040,-0.33149421,-0.40809940375895903
2025-01-08 10:43:12.369851136,-0.33595192,-0.40356754868753164
2025-01-08 10:43:12.379933952,-0.34135765,-0.3985779091682138
2025-01-08 10:43:12.389900032,-0.35466474,-0.3931326149827689
2025-01-08 10:43:12.400003840,-0.37393194,-0.3872340201080269
2025-01-08 10:43:12.410108160,-0.39547938,-0.3808847018144031
2025-01-08 10:43:12.419971840,-0.40739501,-0.3740874596566164
2025-01-08 10:43:12.429968128,-0.39959067,-0.3668453143568099
2025-01-08 10:43:12.440040192,-0.37264621,-0.3591615065803118
2025-01-08 10:43:12.450063872,-0.33636713,-0.35103949560434067
2025-01-08 10:43:12.460016896,-0.29466522,-0.3424829578799979
2025-01-08 10:43:12.470063872,-0.26381022,-0.3334957854879533
2025-01-08 10:43:12.480071936,-0.2561295,-0.3240820844882715
2025-01-08 10:43:12.490011904,-0.25727284,-0.3142461731648813
2025-01-08 10:43:12.500043008,-0.2632001,-0.3039925801652506
2025-01-08 10:43:12.510555136,-0.27607042,-0.2933260425358648
2025-01-08 10:43:12.520034048,-0.28578621,-0.28225150365417545
2025-01-08 10:43:12.529985792,-0.28066784,-0.2707741110577259
2025-01-08 10:43:12.540051968,-0.25721478,-0.2588992141712202
2025-01-08 10:43:12.550059008,-0.23018318,-0.24663236193234653
2025-01-08 10:43:12.560020992,-0.20021451,-0.23397930031722625
2025-01-08 10:43:12.570983936,-0.16797537,-0.220945969766406
2025-01-08 10:43:12.580100096,-0.14584327,-0.20753850251235853
2025-01-08 10:43:12.590245888,-0.13384694,-0.19376321980952438
2025-01-08 10:43:12.600146944,-0.13463664,-0.179626629067956
2025-01-08 10:43:12.610066944,-0.1503855,-0.16513542089169558
2025-01-08 10:43:12.620257024,-0.17966241,-0.15029646602305924
2025-01-08 10:43:12.630184960,-0.21031284,-0.13511681219405536
2025-01-08 10:43:12.640631040,-0.22144902,-0.1196036808862067
2025-01-08 10:43:12.650160128,-0.21498942,-0.10376446400011116
2025-01-08 10:43:12.660072960,-0.20301849,-0.08760672043610734
2025-01-08 10:43:12.670363904,-0.15585142,-0.07113817258747548
2025-01-08 10:43:12.680325120,-0.0306071,-0.054366702747644824
2025-01-08 10:43:12.690326016,0.17545021,-0.03730034943292831
2025-01-08 10:43:12.700370944,0.46362847,-0.019947303622352863
2025-01-08 10:43:12.710413056,0.83392608,-0.0023159049162063154
2025-01-08 10:43:12.720427008,1.20553958,0.015585362385041582
2025-01-08 10:43:12.730375168,1.4241643,0.03374787327973122
2025-01-08 10:43:12.740366080,1.44522595,0.05216286614016402
2025-01-08 10:43:12.750372864,1.38822532,0.07082144686211243
2025-01-08 10:43:12.760355072,1.34578395,0.08971459308684633
2025-01-08 10:43:12.770419968,1.36208141,0.10883315849378454
2025-01-08 10:43:12.780409088,1.41880465,0.12816787716184336
2025-01-08 10:43:12.790344960,1.46528196,0.1477093679975141
2025-01-08 10:43:12.800393984,1.45462489,0.16744813922764307
2025-01-08 10:43:12.810230016,1.38189316,0.18737459295487546
2025-01-08 10:43:12.820250880,1.25385976,0.20747902977365637
2025-01-08 10:43:12.830240000,1.10897851,0.22775165344466455
2025-01-08 10:43:12.840333056,0.95962965,0.2481825756255025
2025-01-08 10:43:12.850311168,0.73481303,0.26876182065544096
2025-01-08 10:43:12.860311040,0.46050429,0.28947933039197
2025-01-08 10:43:12.870401024,0.27344114,0.3103249690968791
2025-01-08 10:43:12.880338944,0.12379116,0.3312885283695579
2025-01-08 10:43:12.890324992,-0.05668831,0.3523597321251659
2025-01-08 10:43:12.900371968,-0.17473942,0.37352824161529985
2025-01-08 10:43:12.910352896,-0.28465343,0.39478366048874586
2025-01-08 10:43:12.920343040,-0.41638303,0.41611553988988575
2025-01-08 10:43:12.930471936,-0.55168974,0.4375133835922813
2025-01-08 10:43:12.940740096,-0.65723723,0.4589666531649568
2025-01-08 10:43:12.950514944,-0.68494803,0.48046477316884484
2025-01-08 10:43:12.960311808,-0.66608751,0.5019971363808657
2025-01-08 10:43:12.970397952,-0.64449579,0.5235531090430621
2025-01-08 10:43:12.980406016,-0.59717035,0.5451220361342026
2025-01-08 10:43:12.990427136,-0.48294932,0.5666932466612451
2025-01-08 10:43:13.000484864,-0.3397578,0.5882560589680224
2025-01-08 10:43:13.010469888,-0.19904345,0.609799786058505
2025-01-08 10:43:13.020410112,-0.076446,0.6313137409319741
2025-01-08 10:43:13.030525952,0.04265887,0.6527872419274189
2025-01-08 10:43:13.040563968,0.16039073,0.6742096180744636
2025-01-08 10:43:13.050501120,0.31227469,0.6955702144481118
2025-01-08 10:43:13.060478976,0.51116693,0.7168583975245898
2025-01-08 10:43:13.070504960,0.67820293,0.7380635605355536
2025-01-08 10:43:13.080521216,0.68212563,0.7591751288179185
2025-01-08 10:43:13.090543104,0.52475584,0.7801825651565673
2025-01-08 10:43:13.100513024,0.40994948,0.8010753751171796
2025-01-08 10:43:13.110588160,0.37606728,0.8218431123664245
2025-01-08 10:43:13.120528896,0.34986007,0.8424753839767584
2025-01-08 10:43:13.130614016,0.37223113,0.862961855713062
2025-01-08 10:43:13.140541952,0.41111225,0.8832922572983581
2025-01-08 10:43:13.153047040,0.38835406,0.9034563876558469
2025-01-08 10:43:13.160995072,0.28948343,0.9234441201245049
2025-01-08 10:43:13.171314944,0.20301551,0.9432454076454918
2025-01-08 10:43:13.180741120,0.16381526,0.9628502879166221
2025-01-08 10:43:13.190674944,0.09082085,0.9822488885121647
2025-01-08 10:43:13.200651776,-0.01753896,1.001431431965238
2025-01-08 10:43:13.210596096,-0.12846059,1.0203882408100855
2025-01-08 10:43:13.220561920,-0.2683773,1.0391097425815303
2025-01-08 10:43:13.230708992,-0.43221742,1.0575864747689123
2025-01-08 10:43:13.240619008,-0.54516053,1.075809089721835
2025-01-08 10:43:13.250624000,-0.63100648,1.09376835950507
2025-01-08 10:43:13.260584192,-0.74994642,1.1114551806999704
2025-01-08 10:43:13.270627072,-0.89135575,1.1288605791497832
2025-01-08 10:43:13.280681984,-1.03518665,1.1459757146462628
2025-01-08 10:43:13.290644992,-1.17396998,1.1627918855550077
2025-01-08 10:43:13.300681984,-1.37622833,1.1793005333769797
2025-01-08 10:43:13.310731776,-1.62099147,1.1954932472436828
2025-01-08 10:43:13.320698880,-1.71715999,1.211361768343501
2025-01-08 10:43:13.331207936,-1.58743978,1.2268979942767455
2025-01-08 10:43:13.340785920,-1.40538502,1.242093983336969
2025-01-08 10:43:13.350792960,-1.29175973,1.2569419587161477
2025-01-08 10:43:13.360744960,-1.10229897,1.271434312631371
2025-01-08 10:43:13.370786816,-0.81097919,1.2855636103707064
2025-01-08 10:43:13.380713984,-0.44268781,1.2993225942559465
2025-01-08 10:43:13.390770944,-0.01613235,1.3127041875199814
2025-01-08 10:43:13.400749824,0.40076691,1.3257014980965898
2025-01-08 10:43:13.410923008,0.77024561,1.338307822320467
2025-01-08 10:43:13.420790016,1.23851752,1.3505166485353644
2025-01-08 10:43:13.431014912,1.95871627,1.3623216606082542
2025-01-08 10:43:13.440929024,2.74738908,1.3737167413474796
2025-01-08 10:43:13.450781184,3.23597717,1.3846959758228876
2025-01-08 10:43:13.460797184,3.59039783,1.3952536545860168
2025-01-08 10:43:13.470832128,4.12637329,1.4053842767884215
2025-01-08 10:43:13.480828928,4.69115782,1.4150825531963058
2025-01-08 10:43:13.490833920,5.0564065,1.4243434090996594
2025-01-08 10:43:13.500798976,5.31680298,1.4331619871141634
2025-01-08 10:43:13.510864896,5.48557329,1.4415336498741738
2025-01-08 10:43:13.520872192,5.36032343,1.4494539826151533
2025-01-08 10:43:13.530886912,5.03018904,1.4569187956439775
2025-01-08 10:43:13.541026048,4.59165955,1.4639241266955956
2025-01-08 10:43:13.550852096,4.0899086,1.47046624317459
2025-01-08 10:43:13.560980992,3.62382221,1.4765416442802333
2025-01-08 10:43:13.570936064,3.20568013,1.4821470630137021
2025-01-08 10:43:13.580931072,2.82001829,1.48727946806618
2025-01-08 10:43:13.590889984,2.52054906,1.4919360655866272
2025-01-08 10:43:13.600965888,2.34536028,1.496114300828063
2025-01-08 10:43:13.611013888,2.29372764,1.4998118596712897
2025-01-08 10:43:13.621059840,2.21159005,1.503026670025019
2025-01-08 10:43:13.631084032,2.03957844,1.5057569031014584
2025-01-08 10:43:13.641421056,1.92291534,1.5080009745664629
2025-01-08 10:43:13.651098112,1.90897441,1.5097575455634302
2025-01-08 10:43:13.661079040,1.97796619,1.5110255236101908
2025-01-08 10:43:13.671126016,2.12125659,1.511804063368204
2025-01-08 10:43:13.681163008,2.41816401,1.5120925672834462
2025-01-08 10:43:13.691147008,2.77239799,1.5118906860984456
2025-01-08 10:43:13.701266176,3.11281514,1.5111983192349887
2025-01-08 10:43:13.711205888,3.28817582,1.510015615047095
2025-01-08 10:43:13.721160960,3.14799595,1.5083429709439211
2025-01-08 10:43:13.731166976,2.77427411,1.5061810333823435
2025-01-08 10:43:13.741161216,2.51914501,1.5035306977290206
2025-01-08 10:43:13.751055872,2.38643312,1.5003931079918167
2025-01-08 10:43:13.760905984,2.14538479,1.496769656420555
2025-01-08 10:43:13.770960128,1.79245555,1.4926619829771097
2025-01-08 10:43:13.780983040,1.48837829,1.4880719746749518
2025-01-08 10:43:13.792669184,1.27353168,1.4830017647883162
2025-01-08 10:43:13.801291008,1.16843939,1.4774537319312389
2025-01-08 10:43:13.811377152,1.1311574,1.4714304990067786
2025-01-08 10:43:13.821168896,1.08490062,1.4649349320268281
2025-01-08 10:43:13.831054848,1.0155853,1.4579701388029644
2025-01-08 10:43:13.841053952,0.94113958,1.4505394675088903
2025-01-08 10:43:13.851099136,0.88170457,1.4426465051150743
2025-01-08 10:43:13.861148160,0.88254607,1.434295075696267
2025-01-08 10:43:13.871169024,0.9376359,1.4254892386126612
2025-01-08 10:43:13.881138944,0.95045578,1.416233286565518
2025-01-08 10:43:13.891117056,0.95153517,1.4065317435281566
2025-01-08 10:43:13.901299968,1.02602065,1.3963893625532828
2025-01-08 10:43:13.911238912,1.27177668,1.385811123457702
2025-01-08 10:43:13.921168128,1.63297737,1.37480223038552
2025-01-08 10:43:13.931246080,2.01717925,1.3633681092510246
2025-01-08 10:43:13.941248000,2.08634758,1.35151440506249
2025-01-08 10:43:13.951287040,1.80492973,1.339246979128236
2025-01-08 10:43:13.961250048,1.6277535,1.3265719061463173
2025-01-08 10:43:13.971314944,1.54045987,1.3134954711793143
2025-01-08 10:43:13.981285120,1.4989295,1.3000241665157364
2025-01-08 10:43:13.991224064,1.4204452,1.28616468841963
2025-01-08 10:43:14.001223936,1.18871474,1.27192393377005
2025-01-08 10:43:14.011254016,0.8155483,1.2573089965921072
2025-01-08 10:43:14.021193984,0.45107329,1.242327164481374
2025-01-08 10:43:14.031280128,0.29944032,1.2269859149234958
2025-01-08 10:43:14.041361152,0.36796802,1.2112929115109097
2025-01-08 10:43:14.051376128,0.4382962,1.1952560000586367
2025-01-08 10:43:14.061236992,0.32536089,1.1788832046211768
2025-01-08 10:43:14.071260928,0.36726546,1.1621827234125808
2025-01-08 10:43:14.081387008,0.77103263,1.145162924631851
2025-01-08 10:43:14.091268096,1.2738328,1.1278323421958563
2025-01-08 10:43:14.101300992,1.50650549,1.1101996713820184
2025-01-08 10:43:14.111362048,1.28732371,1.0922737643830722
2025-01-08 10:43:14.121392896,0.95275319,1.074063625776257
2025-01-08 10:43:14.131387904,0.84848964,1.055578407909341
2025-01-08 10:43:14.141253888,0.88162464,1.0368274062059442
2025-01-08 10:43:14.151756032,0.88766563,1.0178200543926579
2025-01-08 10:43:14.161253888,0.85800123,0.9985659196505132
2025-01-08 10:43:14.171293952,0.84054106,0.9790746976933948
2025-01-08 10:43:14.181325056,0.87043214,0.959356207776043
2025-01-08 10:43:14.191576832,0.9447208,0.9394203876343231
2025-01-08 10:43:14.201432832,1.01444459,0.9192772883604835
2025-01-08 10:43:14.211559168,1.03926134,0.8989370692161719
2025-01-08 10:43:14.221390080,0.99346173,0.878409992385999
2025-01-08 10:43:14.231433984,0.90402812,0.857706417674494
2025-01-08 10:43:14.241519872,0.83351159,0.8368367971493155
2025-01-08 10:43:14.252463104,0.80187368,0.8158116697336217
2025-01-08 10:43:14.261552128,0.7828868,0.7946416557505342
2025-01-08 10:43:14.271409152,0.75377923,0.7733374514226573
2025-01-08 10:43:14.281521152,0.70820844,0.7519098233296361
2025-01-08 10:43:14.291503872,0.66058445,0.7303696028267791
2025-01-08 10:43:14.301513984,0.62268859,0.7087276804277761
2025-01-08 10:43:14.311568896,0.5752539,0.6869950001545776
2025-01-08 10:43:14.321520128,0.52003092,0.6651825538575078
2025-01-08 10:43:14.331507968,0.47563255,0.6433013755087287
2025-01-08 10:43:14.341534976,0.4275558,0.6213625354721501
2025-01-08 10:43:14.351512832,0.36563104,0.5993771347529354
2025-01-08 10:43:14.361537024,0.28952873,0.5773562992297357
2025-01-08 10:43:14.371706880,0.20940953,0.5553111738728139
2025-01-08 10:43:14.383698944,0.1240713,0.5332529169512196
2025-01-08 10:43:14.391599872,0.0323956,0.5111926942321898
2025-01-08 10:43:14.401451008,-0.06553388,0.48914167317595125
2025-01-08 10:43:14.411601920,-0.16363901,0.4671110171291047
2025-01-08 10:43:14.421516800,-0.25017124,0.4451118795197761
2025-01-08 10:43:14.431652096,-0.32809806,0.42315539805771574
2025-01-08 10:43:14.441585920,-0.40813416,0.40125268894252586
2025-01-08 10:43:14.451666176,-0.49723589,0.3794148410831933
2025-01-08 10:43:14.461859072,-0.59781492,0.3576529103321001
2025-01-08 10:43:14.471736832,-0.69834512,0.3359779137366691
2025-01-08 10:43:14.481647872,-0.77343792,0.3144008238118055
2025-01-08 10:43:14.491579136,-0.80700505,0.2929325628362685
2025-01-08 10:43:14.501597952,-0.84306401,0.2715839971761089
2025-01-08 10:43:14.511632896,-0.90462118,0.25036593163827825
2025-01-08 10:43:14.521692160,-0.96601045,0.22928910385751072
2025-01-08 10:43:14.531644160,-1.0157007,0.20836417871955373
2025-01-08 10:43:14.541703936,-1.03312838,0.18760174282379982
2025-01-08 10:43:14.551872000,-1.02193093,0.16701229898836165
2025-01-08 10:43:14.561827840,-1.00066197,0.14660626080058825
2025-01-08 10:43:14.571897088,-0.98670304,0.1263939472160167
2025-01-08 10:43:14.581883904,-0.97911537,0.10638557720870391
2025-01-08 10:43:14.591834112,-0.96514142,0.08659126447587347
2025-01-08 10:43:14.601946112,-0.93920153,0.06702101219976382
2025-01-08 10:43:14.611894016,-0.91082078,0.0476847078695422
2025-01-08 10:43:14.621869056,-0.87983012,0.028592118166109466
2025-01-08 10:43:14.631922944,-0.83332586,0.009752883912583435
2025-01-08 10:43:14.642420992,-0.75554645,-0.00882348490678361
2025-01-08 10:43:14.652147968,-0.62023026,-0.027127614056550446
2025-01-08 10:43:14.661836032,-0.39472783,-0.04515026988621553
2025-01-08 10:43:14.671956992,-0.01716983,-0.06288236408991221
2025-01-08 10:43:14.681870080,0.59871966,-0.08031495838707958
2025-01-08 10:43:14.691809024,1.36623502,-0.09743926912157934
2025-01-08 10:43:14.701729024,1.50972593,-0.11424667177676721
2025-01-08 10:43:14.711762944,0.89568418,-0.1307287054040785
2025-01-08 10:43:14.721848064,0.39942855,-0.1468770769627427
2025-01-08 10:43:14.731832064,0.24557716,-0.1626836655682869
2025-01-08 10:43:14.741883136,0.09021926,-0.1781405266475438
2025-01-08 10:43:14.751890944,-0.17171913,-0.19323989599793895
2025-01-08 10:43:14.761903104,-0.41056973,-0.20797419374887666
2025-01-08 10:43:14.771938048,-0.50772917,-0.22233602822311824
2025-01-08 10:43:14.781886208,-0.45413136,-0.23631819969608206
2025-01-08 10:43:14.791926016,-0.33063155,-0.24991370405108063
2025-01-08 10:43:14.801913856,-0.20920682,-0.2631157363285436
2025-01-08 10:43:14.811960832,-0.13363117,-0.27591769416736184
2025-01-08 10:43:14.822155008,-0.10858303,-0.28831318113652965
2025-01-08 10:43:14.831720192,-0.11248434,-0.300296009955344
2025-01-08 10:43:14.841812992,-0.10590059,-0.31186020560046923
2025-01-08 10:43:14.851816960,-0.0655514,-0.32300000829825487
2025-01-08 10:43:14.861746944,0.00493997,-0.3337098764007461
2025-01-08 10:43:14.871802112,0.08949268,-0.34398448914391333
2025-01-08 10:43:14.881854976,0.17213506,-0.35381874928667356
2025-01-08 10:43:14.891793920,0.22960174,-0.36320778562936235
2025-01-08 10:43:14.901763072,0.27756536,-0.37214695541038123
2025-01-08 10:43:14.911854080,0.31177664,-0.38063184657980537
2025-01-08 10:43:14.921821952,0.31787544,-0.38865827994882657
2025-01-08 10:43:14.931799040,0.30730832,-0.3962223112139586
2025-01-08 10:43:14.941842944,0.28711879,-0.40332023285502144
2025-01-08 10:43:14.951917824,0.26058215,-0.409948575905976
2025-01-08 10:43:14.961915904,0.23421556,-0.4161041115977774
2025-01-08 10:43:14.971853056,0.21682173,-0.4217838528724603
2025-01-08 10:43:14.981892096,0.2068426,-0.42698505576777196
2025-01-08 10:43:14.991869952,0.19833767,-0.43170522067172007
2025-01-08 10:43:15.001929984,0.18711406,-0.43594209344649415
2025-01-08 10:43:15.011940096,0.17774355,-0.43969366642127916
2025-01-08 10:43:15.021921024,0.18035883,-0.4429581792535728
2025-01-08 10:43:15.031928064,0.18821877,-0.44573411965867127
2025-01-08 10:43:15.041892096,0.18602759,-0.4480202240070858
2025-01-08 10:43:15.052017920,0.17289239,-0.4498154777897115
2025-01-08 10:43:15.061899776,0.14798474,-0.4511191159506508
2025-01-08 10:43:15.071921152,0.1129564,-0.45193062308767173
2025-01-08 10:43:15.081868032,0.08575141,-0.4522497335203522
2025-01-08 10:43:15.093046784,0.07127815,-0.45207643122603647
2025-01-08 10:43:15.102134016,0.0697481,-0.45141094964381184
2025-01-08 10:43:15.111932160,0.0680058,-0.4502537713467726
2025-01-08 10:43:15.121964032,0.0481261,-0.448605627582934
2025-01-08 10:43:15.131994880,0.00920463,-0.44646749768521204
2025-01-08 10:43:15.142116096,-0.04364634,-0.4438406083509715
2025-01-08 10:43:15.152100096,-0.0909974,-0.4407264327917166
2025-01-08 10:43:15.161974784,-0.12956691,-0.437126689753559
2025-01-08 10:43:15.172069120,-0.1570797,-0.43304334240919173
2025-01-08 10:43:15.182121984,-0.17387187,-0.4284785971221479
2025-01-08 10:43:15.192378112,-0.18220192,-0.4234349020842047
2025-01-08 10:43:15.202054912,-0.18648672,-0.41791494582686495
2025-01-08 10:43:15.212030976,-0.19824272,-0.41192165560791144
2025-01-08 10:43:15.222141952,-0.21706325,-0.40545819567410074
2025-01-08 10:43:15.232090112,-0.24348485,-0.39852796540113644
2025-01-08 10:43:15.242213888,-0.2676211,-0.39113459731211936
2025-01-08 10:43:15.252065024,-0.28290737,-0.3832819549757442
2025-01-08 10:43:15.262070784,-0.2913959,-0.374974130785585
2025-01-08 10:43:15.272141824,-0.29465616,-0.3662154436218563
2025-01-08 10:43:15.282129920,-0.29236841,-0.3570104363971211
2025-01-08 10:43:15.292148992,-0.27977228,-0.3473638734874709
2025-01-08 10:43:15.302288128,-0.25928026,-0.33728073805075975
2025-01-08 10:43:15.312244992,-0.24008495,-0.3267662292335441
2025-01-08 10:43:15.322249984,-0.23304754,-0.31582575926843476
2025-01-08 10:43:15.332317952,-0.24145448,-0.304464950463623
2025-01-08 10:43:15.342272000,-0.23675656,-0.29268963208640614
2025-01-08 10:43:15.352281088,-0.21946234,-0.2805058371425908
2025-01-08 10:43:15.362190848,-0.20135516,-0.26791979905370145
2025-01-08 10:43:15.372194048,-0.20185578,-0.25493794823398613
2025-01-08 10:43:15.382198016,-0.2142601,-0.24156690856925409
2025-01-08 10:43:15.392316160,-0.21130598,-0.227813493799633
2025-01-08 10:43:15.402415872,-0.19533062,-0.21368470380838703
2025-01-08 10:43:15.412257024,-0.20028955,-0.19918772081897546
2025-01-08 10:43:15.422342912,-0.23290187,-0.18432990550259362
2025-01-08 10:43:15.432228096,-0.2589252,-0.16911879299846128
2025-01-08 10:43:15.442259200,-0.26529735,-0.15356208884919242
2025-01-08 10:43:15.452354816,-0.27277249,-0.13766766485359835
2025-01-08 10:43:15.462245888,-0.28021544,-0.12144355483933639
2025-01-08 10:43:15.472279040,-0.27553022,-0.10489795035783962
2025-01-08 10:43:15.482356992,-0.2564438,-0.08803919630401653
2025-01-08 10:43:15.492384000,-0.22808707,-0.07087578646322794
2025-01-08 10:43:15.502382080,-0.20494777,-0.05341635898810174
2025-01-08 10:43:15.512381952,-0.1728856,-0.03566969180775872
2025-01-08 10:43:15.522574848,-0.11156571,-0.017644697972075792
2025-01-08 10:43:15.532521984,-0.0230307,0.0006495790663794921
2025-01-08 10:43:15.542448896,0.09454703,0.019203970230062345
2025-01-08 10:43:15.552516864,0.26849359,0.03800918565111812
2025-01-08 10:43:15.562486784,0.5520004,0.057055819560276305
2025-01-08 10:43:15.572532992,0.93602842,0.0763343552272299
2025-01-08 10:43:15.582535936,1.3018682,0.09583516994972471
2025-01-08 10:43:15.592621056,1.48334742,0.11554854008857988
2025-01-08 10:43:15.602489088,1.45358682,0.13546464614582485
2025-01-08 10:43:15.612577792,1.39657807,0.15557357788313947
2025-01-08 10:43:15.625099008,1.36915708,0.17586533947775512
2025-01-08 10:43:15.632478976,1.33472848,0.19632985471297076
2025-01-08 10:43:15.642674944,1.34609246,0.2169569722004225
2025-01-08 10:43:15.652883968,1.38044071,0.23773647063123668
2025-01-08 10:43:15.662408960,1.31689692,0.25865806405319025
2025-01-08 10:43:15.672399872,1.15268207,0.2797114071709924
2025-01-08 10:43:15.682401024,0.97836655,0.30088610066680427
2025-01-08 10:43:15.692495104,0.82852268,0.32217169653809946
2025-01-08 10:43:15.702512896,0.679075,0.34355770344998
2025-01-08 10:43:15.712482048,0.51382214,0.3650335920990549
2025-01-08 10:43:15.722611968,0.32961249,0.38658880058598977
2025-01-08 10:43:15.732562176,0.13549274,0.4082127397938499
2025-01-08 10:43:15.742470912,-0.06150335,0.42989479876935016
2025-01-08 10:43:15.752620032,-0.22188425,0.4516243501041473
2025-01-08 10:43:15.762507008,-0.34852141,0.4733907553133081
2025-01-08 10:43:15.772559872,-0.4559136,0.4951833702081045
2025-01-08 10:43:15.782440960,-0.53187162,0.5169915502602933
2025-01-08 10:43:15.792538880,-0.61106133,0.5388046559550576
2025-01-08 10:43:15.802715136,-0.63584036,0.5606120581297989
2025-01-08 10:43:15.812534016,-0.58251816,0.582403143295984
2025-01-08 10:43:15.822658048,-0.51538575,0.6041673189412791
2025-01-08 10:43:15.832544000,-0.45845771,0.6258940188092045
2025-01-08 10:43:15.842652928,-0.37045711,0.647572708153592
2025-01-08 10:43:15.852621056,-0.25780731,0.6691928889651199
2025-01-08 10:43:15.862586880,-0.14614487,0.6907441051672507
2025-01-08 10:43:15.872611072,-0.0319069,0.7122159477789066
2025-01-08 10:43:15.882653952,0.08678353,0.7335980600412506
2025-01-08 10:43:15.892640000,0.19902015,0.7548801425059751
2025-01-08 10:43:15.902774016,0.29217756,0.7760519580825144
2025-01-08 10:43:15.912798976,0.34594804,0.79710333704165
2025-01-08 10:43:15.922770944,0.34175777,0.8180241819729929
2025-01-08 10:43:15.932701952,0.31156999,0.8388044726938688
2025-01-08 10:43:15.942633984,0.32096702,0.8594342711071711
2025-01-08 10:43:15.952730880,0.3566317,0.8799037260057719
2025-01-08 10:43:15.962685952,0.37465835,0.9002030778211306
2025-01-08 10:43:15.972713984,0.35774273,0.9203226633137729
2025-01-08 10:43:15.982646016,0.31505287,0.9402529202033557
2025-01-08 10:43:15.992729856,0.2778089,0.9599843917360702
2025-01-08 10:43:16.002775040,0.25060648,0.9795077311871834
2025-01-08 10:43:16.012721152,0.21971649,0.9988137062965594
2025-01-08 10:43:16.022572032,0.20751202,1.0178932036350457
2025-01-08 10:43:16.032718848,0.20256239,1.0367372328996565
2025-01-08 10:43:16.042701056,0.16377044,1.0553369311355307
2025-01-08 10:43:16.052687872,0.1068719,1.07368356688269
2025-01-08 10:43:16.062611968,0.0752005,1.0917685442456682
2025-01-08 10:43:16.072617984,0.04868537,1.1095834068841424
2025-01-08 10:43:16.082637056,0.0022642,1.127119841922728
2025-01-08 10:43:16.092664832,-0.04188532,1.1443696837781687
2025-01-08 10:43:16.102704896,-0.07606393,1.1613249179021994
2025-01-08 10:43:16.112731904,-0.15017754,1.1779776844383951
2025-01-08 10:43:16.122669824,-0.2735396,1.1943202817914074
2025-01-08 10:43:16.132702976,-0.37803864,1.210345170107003
2025-01-08 10:43:16.142720000,-0.52371657,1.2260449746614086
2025-01-08 10:43:16.152681984,-0.77421248,1.2414124891584932
2025-01-08 10:43:16.162717184,-1.08737326,1.2564406789333948
2025-01-08 10:43:16.172841984,-1.38421524,1.2711226840612437
2025-01-08 10:43:16.182918912,-1.61829948,1.2854518223696914
2025-01-08 10:43:16.192954112,-1.81524444,1.2994215923540184
2025-01-08 10:43:16.202920960,-2.0288415,1.3130256759936392
2025-01-08 10:43:16.212961792,-2.14565325,1.3262579414688933
2025-01-08 10:43:16.222973952,-2.06409049,1.3391124457770622
2025-01-08 10:43:16.235301888,-1.93262172,1.351583437246605
2025-01-08 10:43:16.242832896,-1.79152071,1.363665357948681
2025-01-08 10:43:16.252936960,-1.31313908,1.3753528460050677
2025-01-08 10:43:16.262834176,-0.59629709,1.3866407377916505
2025-01-08 10:43:16.272801024,0.13351595,1.3975240700367195
2025-01-08 10:43:16.282939904,0.87353152,1.4079980818133697
2025-01-08 10:43:16.293135872,1.69690526,1.4180582164253503
2025-01-08 10:43:16.303024128,2.55717039,1.4277001231857813
2025-01-08 10:43:16.312983040,3.42479897,1.4369196590882065
2025-01-08 10:43:16.323302144,4.38772583,1.4457128903695127
2025-01-08 10:43:16.333022976,5.3314662,1.4540760939643036
2025-01-08 10:43:16.342967040,5.98012018,1.462005758850383
2025-01-08 10:43:16.353044992,6.15823364,1.4694985872850472
2025-01-08 10:43:16.362865920,6.33622122,1.476551495931958
2025-01-08 10:43:16.373029888,6.47371054,1.4831616168784216
2025-01-08 10:43:16.383090944,6.15313578,1.4893262985429563
2025-01-08 10:43:16.392975104,5.56393957,1.495043106473083
2025-01-08 10:43:16.402967040,5.0106082,1.5003098240333579
2025-01-08 10:43:16.413490944,4.516047,1.5051244529836785
2025-01-08 10:43:16.423096064,4.05446863,1.5094852139479973
2025-01-08 10:43:16.433107968,3.67447233,1.5133905467736049
2025-01-08 10:43:16.443109888,3.32966352,1.5168391107812105
2025-01-08 10:43:16.453277184,2.96421552,1.5198297849061029
2025-01-08 10:43:16.463738880,2.68493843,1.522361667730732
2025-01-08 10:43:16.473534208,2.5647223,1.5244340774091025
2025-01-08 10:43:16.483237888,2.60083175,1.5260465514834258
2025-01-08 10:43:16.493241088,2.85336709,1.5271988465935353
2025-01-08 10:43:16.503258112,3.20494437,1.5278909380796164
2025-01-08 10:43:16.516835072,3.14303184,1.5281230194788569
2025-01-08 10:43:16.523355904,2.76081705,1.527895501916682
2025-01-08 10:43:16.533255168,2.5427568,1.527209013393278
2025-01-08 10:43:16.543267840,2.60506868,1.5260643979661688
2025-01-08 10:43:16.553200128,2.84608388,1.5244627148296548
2025-01-08 10:43:16.563354880,2.95921087,1.5224052372919739
2025-01-08 10:43:16.573432832,2.73698163,1.519893451651091
2025-01-08 10:43:16.583297024,2.41460657,1.5169290559700739
2025-01-08 10:43:16.593139968,2.24972463,1.5135139587530537
2025-01-08 10:43:16.603141120,2.16420078,1.5096502775228235
2025-01-08 10:43:16.613168896,2.03220034,1.5053403373011627
2025-01-08 10:43:16.623249920,1.83317423,1.5005866689930252
2025-01-08 10:43:16.633261056,1.62858677,1.4953920076757756
2025-01-08 10:43:16.643245824,1.47654152,1.4897592907946928
2025-01-08 10:43:16.653563904,1.35691929,1.483691656266004
2025-01-08 10:43:16.663235840,1.20549715,1.4771924404887582
2025-01-08 10:43:16.673260032,1.07938612,1.4702651762668795
2025-01-08 10:43:16.683409920,0.99974382,1.462913590642787
2025-01-08 10:43:16.693316096,0.91386652,1.4551416026439952
2025-01-08 10:43:16.703147008,0.83347183,1.4469533209441634
2025-01-08 10:43:16.713170176,0.82677615,1.4383530414400711
2025-01-08 10:43:16.723249920,0.87106925,1.4293452447460662
2025-01-08 10:43:16.733198848,0.90251809,1.419934593607525
2025-01-08 10:43:16.743153152,0.97244745,1.4101259302349387
2025-01-08 10:43:16.753267968,1.05924845,1.399924273560236
2025-01-08 10:43:16.763254784,1.11913013,1.3893348164170038
2025-01-08 10:43:16.773370112,1.19023991,1.3783629226462921
2025-01-08 10:43:16.783462144,1.24979508,1.3670141241297082
2025-01-08 10:43:16.793414144,1.32505465,1.3552941177515514
2025-01-08 10:43:16.803392768,1.42109704,1.3432087622917466
2025-01-08 10:43:16.813344000,1.44431949,1.3307640752513712
2025-01-08 10:43:16.823976960,1.35642958,1.3179662296125862
2025-01-08 10:43:16.834324992,1.28145635,1.30482155053482
2025-01-08 10:43:16.843425024,1.22693968,1.2913365119890499
2025-01-08 10:43:16.853476096,1.04450333,1.2775177333320762
2025-01-08 10:43:16.863403008,0.85987371,1.2633719758226785
2025-01-08 10:43:16.873505024,0.79310942,1.2489061390815763
2025-01-08 10:43:16.883554048,0.85041928,1.234127257497131
2025-01-08 10:43:16.893677824,1.00019228,1.2190424965787368
2025-01-08 10:43:16.903642880,1.04212999,1.2036591492598727
2025-01-08 10:43:16.913660928,0.78123748,1.1879846321527905
2025-01-08 10:43:16.923629056,0.62060416,1.1720264817568378
2025-01-08 10:43:16.933479168,1.00900161,1.155792350622416
2025-01-08 10:43:16.943417088,1.67902708,1.1392900034725968
2025-01-08 10:43:16.953504000,2.09061813,1.1225273132844145
2025-01-08 10:43:16.963597056,1.85242033,1.1055122573318725
2025-01-08 10:43:16.973541888,1.33774114,1.0882529131927068
2025-01-08 10:43:16.983366912,1.17829049,1.0707574547209533
2025-01-08 10:43:16.993700096,1.27998829,1.0530341479873657
2025-01-08 10:43:17.003550976,1.29696226,1.0350913471897565
2025-01-08 10:43:17.013575936,1.13906658,1.0169374905353021
2025-01-08 10:43:17.023709184,0.966344,0.9985810960968929
2025-01-08 10:43:17.033584128,0.89789361,0.9800307576455776
2025-01-08 10:43:17.043566080,0.90669936,0.9612951404611761
2025-01-08 10:43:17.053574144,0.9250685,0.9423829771231154
2025-01-08 10:43:17.063599104,0.93113142,0.923303063283556
2025-01-08 10:43:17.073597952,0.93708283,0.9040642534248621
2025-01-08 10:43:17.083596032,0.93740052,0.88467545660347
2025-01-08 10:43:17.093646080,0.90447128,0.8651456321822063
2025-01-08 10:43:17.103728896,0.84597129,0.8454837855530964
2025-01-08 10:43:17.113620992,0.77407354,0.8256989638526991
2025-01-08 10:43:17.123724032,0.6958378,0.8058002516719964
2025-01-08 10:43:17.134354176,0.61549264,0.7857967667628604
2025-01-08 10:43:17.143642880,0.54423898,0.7656976557431019
2025-01-08 10:43:17.153664000,0.49825835,0.7455120898021066
2025-01-08 10:43:17.163596032,0.46506608,0.7252492604090411
2025-01-08 10:43:17.173729792,0.42404687,0.7049183750256105
2025-01-08 10:43:17.183651840,0.36413074,0.684528652825324
2025-01-08 10:43:17.193684992,0.28684926,0.6640893204212223
2025-01-08 10:43:17.203972096,0.19666845,0.6436096076039998
2025-01-08 10:43:17.213764864,0.10399455,0.6230987430924368
2025-01-08 10:43:17.223723008,0.0167219,0.6025659502980509
2025-01-08 10:43:17.233730048,-0.06083971,0.5820204431058433
2025-01-08 10:43:17.243840000,-0.14668763,0.5614714216730159
2025-01-08 10:43:17.253760000,-0.24547803,0.5409280682475031
2025-01-08 10:43:17.263817984,-0.34831619,0.5203995430081472
2025-01-08 10:43:17.273829888,-0.43973625,0.49989497992832976
2025-01-08 10:43:17.283776000,-0.53142476,0.47942348266484464
2025-01-08 10:43:17.293809920,-0.60877943,0.4589941204737795
2025-01-08 10:43:17.303740928,-0.66521126,0.4386159241551552
2025-01-08 10:43:17.313779200,-0.70940459,0.41829788202803897
2025-01-08 10:43:17.323857920,-0.74849504,0.398048935937835
2025-01-08 10:43:17.333803008,-0.78919381,0.3778779772974264
2025-01-08 10:43:17.343836160,-0.83543724,0.3577938431638193
2025-01-08 10:43:17.353863936,-0.89530164,0.337805312351914
2025-01-08 10:43:17.363878912,-0.95276082,0.3179211015870035
2025-01-08 10:43:17.373835008,-0.99063957,0.2981498616975741
2025-01-08 10:43:17.383828992,-1.0128181,0.2785001738499569
2025-01-08 10:43:17.393879808,-1.02418113,0.25898054582634245
2025-01-08 10:43:17.403933952,-1.02715325,0.23959940834766438
2025-01-08 10:43:17.414045952,-1.02095032,0.22036511144280574
2025-01-08 10:43:17.424045056,-1.01178598,0.2012859208655672
2025-01-08 10:43:17.434017024,-1.00079048,0.18237001456080543
2025-01-08 10:43:17.444097024,-0.97397029,0.16362547918112127
2025-01-08 10:43:17.454013952,-0.92232847,0.1450603066554406
2025-01-08 10:43:17.464018176,-0.85570985,0.12668239081081084
2025-01-08 10:43:17.474490880,-0.77536058,0.10849952404869963
2025-01-08 10:43:17.484185856,-0.66343939,0.09051939407704991
2025-01-08 10:43:17.494572032,-0.5019263,0.07274958069932365
2025-01-08 10:43:17.504086016,-0.26714289,0.055197552661721834
2025-01-08 10:43:17.514136064,0.05426157,0.03787066455974865
2025-01-08 10:43:17.524035840,0.47192186,0.020776153805248703
2025-01-08 10:43:17.533870080,0.96021491,0.003921137655018764
2025-01-08 10:43:17.543885824,1.28671515,-0.012687389697943478
2025-01-08 10:43:17.554073088,1.15616202,-0.029042559969514825
2025-01-08 10:43:17.564027904,0.75827163,-0.045137633564847304
2025-01-08 10:43:17.574027008,0.45102584,-0.06096600229312554
2025-01-08 10:43:17.584024832,0.25342143,-0.07652119201574492
2025-01-08 10:43:17.593965056,0.0485757,-0.09179686522700789
2025-01-08 10:43:17.604093184,-0.16307497,-0.10678682356647214
2025-01-08 10:43:17.614010112,-0.3199271,-0.12148501026211139
2025-01-08 10:43:17.624123136,-0.38746375,-0.1358855125034896
2025-01-08 10:43:17.634018816,-0.37874639,-0.14998256374418248
2025-01-08 10:43:17.644156928,-0.3239814,-0.1637705459327071
2025-01-08 10:43:17.654176000,-0.24834901,-0.1772439916712619
2025-01-08 10:43:17.664428032,-0.17131293,-0.19039758630161363
2025-01-08 10:43:17.674146048,-0.10552776,-0.20322616991749098
2025-01-08 10:43:17.684118016,-0.04945809,-0.21572473930289346
2025-01-08 10:43:17.694149120,0.00813526,-0.2278884497957455
2025-01-08 10:43:17.704075008,0.07349956,-0.23971261707636807
2025-01-08 10:43:17.714144000,0.14287978,-0.25119271888026756
2025-01-08 10:43:17.724098816,0.19938296,-0.2623243966347822
2025-01-08 10:43:17.734221824,0.22955519,-0.27310345701915034
2025-01-08 10:43:17.744103936,0.2377581,-0.2835258734476128
2025-01-08 10:43:17.754332928,0.2306546,-0.2935877874751793
2025-01-08 10:43:17.764250112,0.20892304,-0.3032855101257331
2025-01-08 10:43:17.774173952,0.16423148,-0.31261552314218155
2025-01-08 10:43:17.784164864,0.1065985,-0.3215744801583839
2025-01-08 10:43:17.794231808,0.05366361,-0.33015920779263264
2025-01-08 10:43:17.804233984,0.01833022,-0.33836670666248997
2025-01-08 10:43:17.814196992,-0.00176585,-0.3461941523208174
2025-01-08 10:43:17.824246784,-0.00985283,-0.3536388961128697
2025-01-08 10:43:17.834292992,-0.01084805,-0.3606984659543485
2025-01-08 10:43:17.844308992,-0.00776309,-0.367370567030363
2025-01-08 10:43:17.854387968,0.01648325,-0.37365308241525114
2025-01-08 10:43:17.864308992,0.06150442,-0.37954407361327047
2025-01-08 10:43:17.874195968,0.10724765,-0.3850417810201826
2025-01-08 10:43:17.884166912,0.14470237,-0.39014462430580044
2025-01-08 10:43:17.894336000,0.18000722,-0.39485120271758484
2025-01-08 10:43:17.904267008,0.21023041,-0.39916029530542185
2025-01-08 10:43:17.914299904,0.21688163,-0.40307086106773227
2025-01-08 10:43:17.924338944,0.18647206,-0.4065820390191037
2025-01-08 10:43:17.934395136,0.1354534,-0.40969314817966035
2025-01-08 10:43:17.944273920,0.08510935,-0.412403687486416
2025-01-08 10:43:17.954284032,0.04488015,-0.4147133356268925
2025-01-08 10:43:17.964428800,0.01276994,-0.4166219507953065
2025-01-08 10:43:17.974330880,-0.02057213,-0.41812957037166065
2025-01-08 10:43:17.984317184,-0.06002104,-0.4192364105241082
2025-01-08 10:43:17.994384896,-0.11072856,-0.41994286573497985
2025-01-08 10:43:18.004389888,-0.16350603,-0.4202495082509018
2025-01-08 10:43:18.014405120,-0.2079072,-0.4201570874574479
2025-01-08 10:43:18.024416000,-0.24111122,-0.4196665291788137
2025-01-08 10:43:18.034460160,-0.25667244,-0.4187789349030097
2025-01-08 10:43:18.044450048,-0.25109655,-0.4174955809331114
2025-01-08 10:43:18.054429952,-0.23280275,-0.4158179174651303
2025-01-08 10:43:18.064385792,-0.20309687,-0.41374756759308307
2025-01-08 10:43:18.074397952,-0.18844974,-0.41128632624188105
2025-01-08 10:43:18.085310976,-0.20312387,-0.40843615902867314
2025-01-08 10:43:18.094331136,-0.23739249,-0.4051992010533121
2025-01-08 10:43:18.104395008,-0.27419716,-0.40157775561862447
2025-01-08 10:43:18.114438912,-0.30318516,-0.3975742928812124
2025-01-08 10:43:18.124943872,-0.31920534,-0.39319144843351145
2025-01-08 10:43:18.134350080,-0.32180822,-0.38843202181787906
2025-01-08 10:43:18.144832000,-0.32000536,-0.3832989749734943
2025-01-08 10:43:18.154541056,-0.31756437,-0.3777954306168803
2025-01-08 10:43:18.164467968,-0.32128394,-0.3719246705568835
2025-01-08 10:43:18.174422016,-0.32766134,-0.36569013394496436
2025-01-08 10:43:18.184428032,-0.33933371,-0.35909541546167806
2025-01-08 10:43:18.194523136,-0.35496897,-0.35214426344024347
2025-01-08 10:43:18.204797952,-0.3593837,-0.3448405779281252
2025-01-08 10:43:18.214533120,-0.34985447,-0.3371884086875672
2025-01-08 10:43:18.224606976,-0.32974225,-0.3291919531360425
2025-01-08 10:43:18.234607104,-0.3052941,-0.320855554227603
2025-01-08 10:43:18.244577792,-0.2843309,-0.31218369827612885
2025-01-08 10:43:18.254584064,-0.24988866,-0.3031810127215082
2025-01-08 10:43:18.265093120,-0.21084356,-0.29385226383977797
2025-01-08 10:43:18.274597888,-0.18917531,-0.2842023543982948
2025-01-08 10:43:18.284574976,-0.19190758,-0.2742363212570093
2025-01-08 10:43:18.294635008,-0.20484012,-0.263959332916944
2025-01-08 10:43:18.304627968,-0.22151196,-0.25337668701698535
