TIMESTAMP,ACCX,ACCX_filtered
2025-01-08 09:45:57.711889920,-1.4490273,-0.14811944503212665
2025-01-08 09:45:57.746674944,-1.29887128,-0.1455778577187874
2025-01-08 09:45:57.746722816,-1.26142669,-0.14300247187915582
2025-01-08 09:45:57.746731008,-1.93277299,-0.14039574071928723
2025-01-08 09:45:57.832064000,-2.37274098,-0.13776012480567987
2025-01-08 09:45:57.832081152,-2.05315804,-0.1350980898430929
2025-01-08 09:45:57.832088064,-1.39477158,-0.13241210445370272
2025-01-08 09:45:57.832093952,-0.78923672,-0.12970463795966425
2025-01-08 09:45:57.832099072,-0.4483462,-0.12697815817114166
2025-01-08 09:45:57.832103936,-0.27818602,-0.12423512918185921
2025-01-08 09:45:57.832122112,-0.26823783,-0.12147800917422043
2025-01-08 09:45:57.832126976,-0.5643487,-0.118709248236024
2025-01-08 09:45:57.832132096,-0.8938936,-0.11593128619079951
2025-01-08 09:45:57.844254976,-0.81618911,-0.11314655044376258
2025-01-08 09:45:57.853367040,-0.24463701,-0.11035745384537804
2025-01-08 09:45:57.864744960,0.11415958,-0.10756639257449685
2025-01-08 09:45:57.872358144,0.77313572,-0.10477574404301207
2025-01-08 09:45:57.882925056,1.03719139,-0.10198786482395791
2025-01-08 09:45:57.893792000,1.53561354,-0.09920508860494884
2025-01-08 09:45:57.901946112,1.64872098,-0.09642972416883029
2025-01-08 09:45:57.919676160,1.11658978,-0.09366405340338665
2025-01-08 09:45:57.922137088,0.19529939,-0.09091032934191662
2025-01-08 09:45:57.932327936,-0.10660225,-0.08817077423646165
2025-01-08 09:45:57.942097920,-0.19377881,-0.08544757766543326
2025-01-08 09:45:58.059545088,-0.14696389,-0.08274289467735643
2025-01-08 09:45:58.059565056,-0.03724974,-0.08005884397240323
2025-01-08 09:45:58.059570944,0.13639534,-0.07739750612336008
2025-01-08 09:45:58.059577088,0.24204969,-0.07476092183762544
2025-01-08 09:45:58.059581952,0.26895082,-0.07215109026180036
2025-01-08 09:45:58.059587840,0.2791931,-0.06956996733038684
2025-01-08 09:45:58.059592960,0.0785414,-0.06701946416006829
2025-01-08 09:45:58.059598080,-0.11191648,-0.06450144549099968
2025-01-08 09:45:58.059602944,-0.36532873,-0.062017728176490095
2025-01-08 09:45:58.059607040,-0.48224306,-0.059570079722410456
2025-01-08 09:45:58.059987968,-0.44551909,-0.057160216877614134
2025-01-08 09:45:58.062958848,-0.3465215,-0.05478980427660214
2025-01-08 09:45:58.072164096,-0.19912052,-0.052460453135621234
2025-01-08 09:45:58.082486016,-0.23511142,-0.050173720003323256
2025-01-08 09:45:58.092222976,-0.3048262,-0.04793110556706729
2025-01-08 09:45:58.102235136,-0.28363061,-0.045734053515886504
2025-01-08 09:45:58.122496000,-0.33248907,-0.043583949461092626
2025-01-08 09:45:58.122513920,-0.2868616,-0.04148211991542735
2025-01-08 09:45:58.133917952,-0.18116814,-0.03942983133162103
2025-01-08 09:45:58.153785088,-0.20947719,-0.0374282892011558
2025-01-08 09:45:58.153799936,-0.22239345,-0.03547863721397524
2025-01-08 09:45:58.162735104,-0.20772904,-0.03358195647982117
2025-01-08 09:45:58.172235008,-0.11813784,-0.03173926481182216
2025-01-08 09:45:58.182652928,-0.07606596,-0.029951516072895118
2025-01-08 09:45:58.194737920,-0.0943206,-0.028219599585462295
2025-01-08 09:45:58.202510080,-0.09679073,-0.026544339604925755
2025-01-08 09:45:58.212312832,-0.04588366,-0.024926494857278554
2025-01-08 09:45:58.224441088,-0.02060109,-0.02336675814117084
2025-01-08 09:45:58.232240896,0.0050602,-0.02186575599469005
2025-01-08 09:45:58.242393088,0.03827918,-0.02042404842704644
2025-01-08 09:45:58.252320000,0.07184237,-0.01904212871529903
2025-01-08 09:45:58.262365952,0.10604441,-0.017720423266193115
2025-01-08 09:45:58.272485888,0.10670525,-0.01645929154311423
2025-01-08 09:45:58.282306816,0.08160919,-0.015259026058109313
2025-01-08 09:45:58.297779968,0.08049178,-0.01411985242885624
2025-01-08 09:45:58.302339072,0.12550664,-0.013041929500405034
2025-01-08 09:45:58.312329984,0.17639333,-0.012025349531451915
2025-01-08 09:45:58.322387968,0.21071136,-0.011070138444845584
2025-01-08 09:45:58.332350976,0.22108936,-0.010176256141963526
2025-01-08 09:45:58.342499072,0.16532815,-0.009343596880537016
2025-01-08 09:45:58.352370944,0.10221153,-0.008571989715443326
2025-01-08 09:45:58.362384128,0.04803175,-0.007861199001920933
2025-01-08 09:45:58.372384000,-0.01194781,-0.007210924960609429
2025-01-08 09:45:58.382415104,-0.02850598,-0.0066208043037538945
2025-01-08 09:45:58.406824960,-0.01325625,-0.006090410921855208
2025-01-08 09:45:58.406845952,0.01088595,-0.005619256629996447
2025-01-08 09:45:58.412444160,0.04065293,-0.005206791973009099
2025-01-08 09:45:58.422525952,0.0822795,-0.004852407088599564
2025-01-08 09:45:58.433273088,0.10656953,-0.004555432627491494
2025-01-08 09:45:58.442324992,0.09674537,-0.004315140729592292
2025-01-08 09:45:58.452389888,0.08466911,-0.004130746055137509
2025-01-08 09:45:58.462491904,0.03043723,-0.004001406869714337
2025-01-08 09:45:58.472371968,-0.01592153,-0.0039262261820177955
2025-01-08 09:45:58.482543872,-0.06468618,-0.0039042529331404607
2025-01-08 09:45:58.492571136,-0.07217473,-0.003934483236151219
2025-01-08 09:45:58.502751232,-0.05820554,-0.004015861664670762
2025-01-08 09:45:58.512648192,-0.02483362,-0.004147282589104938
2025-01-08 09:45:58.522518016,0.01136124,-0.0043275915591548695
2025-01-08 09:45:58.532435968,0.04150641,-0.004555586731177633
2025-01-08 09:45:58.542574848,0.00210065,-0.004830020338931117
2025-01-08 09:45:58.552519936,0.00029546,-0.0051496002061965996
2025-01-08 09:45:58.562535168,-0.03035325,-0.005512991299732727
2025-01-08 09:45:58.572512000,-0.06005013,-0.005918817320979558
2025-01-08 09:45:58.582739968,-0.0776121,-0.0063656623348926
2025-01-08 09:45:58.592566016,-0.07251447,-0.006852072434256329
2025-01-08 09:45:58.602610176,-0.06493819,-0.007376557437792013
2025-01-08 09:45:58.612681984,-0.00802565,-0.00793759262034423
2025-01-08 09:45:58.622710016,0.01902497,-0.008533620473401306
2025-01-08 09:45:58.632793856,0.03665102,-0.00916305249417826
2025-01-08 09:45:58.642702080,0.03715813,-0.00982427100146517
2025-01-08 09:45:58.653056000,0.02921742,-0.010515630976417596
2025-01-08 09:45:58.662950144,0.01407874,-0.011235461926446332
2025-01-08 09:45:58.672862976,-0.01419115,-0.01198206977034264
2025-01-08 09:45:58.682852864,-0.02941686,-0.012753738742755094
2025-01-08 09:45:58.692960000,-0.01985192,-0.013548733316118252
2025-01-08 09:45:58.702797056,-0.02130246,-0.014365300138119954
2025-01-08 09:45:58.712865024,-0.02603203,-0.015201669982776752
2025-01-08 09:45:58.722716928,-0.01940101,-0.016056059713181227
2025-01-08 09:45:58.763678976,0.00858009,-0.016926674253969504
2025-01-08 09:45:58.763695104,0.05368775,-0.01781170857155613
2025-01-08 09:45:58.764616960,0.05806631,-0.018709349660170772
2025-01-08 09:45:58.775468032,0.05407518,-0.01961777853173478
2025-01-08 09:45:58.782987008,0.02751285,-0.020535172207606527
2025-01-08 09:45:58.793646080,0.01535648,-0.021459705710231012
2025-01-08 09:45:58.802622976,0.00252908,-0.02238955405272545
2025-01-08 09:45:58.812794880,0.00532722,-0.02332289422444047
2025-01-08 09:45:58.822910976,-0.00530726,-0.024257907170539713
2025-01-08 09:45:58.834494208,-0.01317745,-0.025192779763649
2025-01-08 09:45:58.842940160,-0.03314531,-0.026125706765636237
2025-01-08 09:45:58.852852224,-0.03668213,-0.027054892777592012
2025-01-08 09:45:58.862808832,-0.03098202,-0.027978554176097244
2025-01-08 09:45:58.872817152,-0.02459109,-0.028894921033877287
2025-01-08 09:45:58.883061760,-0.01965255,-0.029802239022956523
2025-01-08 09:45:58.892941824,-0.02179426,-0.030698771298452183
2025-01-08 09:45:58.902856192,-0.03183627,-0.031582800361157876
2025-01-08 09:45:58.912887040,-0.02839833,-0.03245262989709756
2025-01-08 09:45:58.922898944,-0.03428739,-0.0333065865922486
2025-01-08 09:45:58.935024896,-0.04468673,-0.03414302192066082
2025-01-08 09:45:58.942814208,-0.05104315,-0.034960313904225375
2025-01-08 09:45:58.952829952,-0.03844827,-0.035756868842374105
2025-01-08 09:45:58.962888960,-0.0358507,-0.036531123010025444
2025-01-08 09:45:58.972968960,-0.03244591,-0.037281544322117034
2025-01-08 09:45:58.983230208,-0.0238483,-0.0380066339631078
2025-01-08 09:45:58.993140992,-0.02972591,-0.03870492797986037
2025-01-08 09:45:59.002928128,-0.04499513,-0.03937499883635495
2025-01-08 09:45:59.013079040,-0.05563956,-0.040015456928724234
2025-01-08 09:45:59.023042048,-0.04656899,-0.0406249520591354
2025-01-08 09:45:59.037543936,0.02041525,-0.04120217486708904
2025-01-08 09:45:59.043056896,0.07405221,-0.041745858216748546
2025-01-08 09:45:59.053203968,0.10975093,-0.042254778538950384
2025-01-08 09:45:59.063190016,0.1142931,-0.04272775712660066
2025-01-08 09:45:59.073001984,0.08784103,-0.04316366138220011
2025-01-08 09:45:59.083163904,0.00882703,-0.043561406016293214
2025-01-08 09:45:59.093089024,-0.06983519,-0.04391995419568237
2025-01-08 09:45:59.103693056,-0.11560577,-0.04423831864029967
2025-01-08 09:45:59.113140224,-0.13541925,-0.04451556266767842
2025-01-08 09:45:59.123002112,-0.12488669,-0.044750801184017926
2025-01-08 09:45:59.133086976,-0.08506781,-0.044943201620887864
2025-01-08 09:45:59.142987008,-0.03001469,-0.045091984816673564
2025-01-08 09:45:59.153441024,0.01268566,-0.045196425841915494
2025-01-08 09:45:59.163042048,0.03947735,-0.04525585476775212
2025-01-08 09:45:59.173042944,0.05254811,-0.04526965737673361
2025-01-08 09:45:59.183186176,0.05959725,-0.04523727581532482
2025-01-08 09:45:59.193147904,0.05740696,-0.04515820918748121
2025-01-08 09:45:59.203270912,0.05299491,-0.04503201408872972
2025-01-08 09:45:59.213104896,0.05811101,-0.04485830508025486
2025-01-08 09:45:59.223201024,0.05691952,-0.04463675510253928
2025-01-08 09:45:59.233051136,0.05890232,-0.04436709582817621
2025-01-08 09:45:59.243140864,0.03983384,-0.04404911795352315
2025-01-08 09:45:59.253978880,0.0471375,-0.043682671428933
2025-01-08 09:45:59.263372800,0.05469018,-0.04326766562735063
2025-01-08 09:45:59.273054976,0.05015022,-0.04280406945113306
2025-01-08 09:45:59.283233792,0.03899753,-0.04229191137700374
2025-01-08 09:45:59.293155072,0.02344745,-0.041731279439114026
2025-01-08 09:45:59.303085056,0.01018518,-0.041122321150249296
2025-01-08 09:45:59.315203840,-0.01724631,-0.04046524336127198
2025-01-08 09:45:59.323170048,-0.00568801,-0.039760312058958025
2025-01-08 09:45:59.342104832,-0.00072855,-0.03900785210244169
2025-01-08 09:45:59.343201024,-0.00250167,-0.038208246898544164
2025-01-08 09:45:59.353820160,-0.00227737,-0.0373619380163209
2025-01-08 09:45:59.363267840,0.00464338,-0.036469424741222695
2025-01-08 09:45:59.373178880,-0.0060358,-0.03553126356932375
2025-01-08 09:45:59.383379968,-0.02422273,-0.03454806764212762
2025-01-08 09:45:59.393446912,-0.04372966,-0.03352050612252365
2025-01-08 09:45:59.403384832,-0.03271544,-0.03244930351251717
2025-01-08 09:45:59.413368832,-0.00907022,-0.031335238913423824
2025-01-08 09:45:59.423453184,0.00561768,-0.030179145229262096
2025-01-08 09:45:59.433442048,0.01228714,-0.028981908314145155
2025-01-08 09:45:59.443171072,0.0034762,-0.027744466064520683
2025-01-08 09:45:59.453204992,-0.01044941,-0.026467807457163164
2025-01-08 09:45:59.463478016,-0.02968228,-0.02515297153387781
2025-01-08 09:45:59.473284096,-0.05085474,-0.023801046333924658
2025-01-08 09:45:59.483376896,-0.07171404,-0.022413167775224598
2025-01-08 09:45:59.493293056,-0.07199699,-0.020990518485458628
2025-01-08 09:45:59.503372032,-0.04756838,-0.01953432658421976
2025-01-08 09:45:59.513353216,-0.01861,-0.0180458644174265
2025-01-08 09:45:59.523680000,0.0034923,-0.01652644724525247
2025-01-08 09:45:59.533370880,0.00632095,-0.014977431884872888
2025-01-08 09:45:59.543399168,0.0019244,-0.01340021530937181
2025-01-08 09:45:59.553587968,0.01205832,-0.011796233204199367
2025-01-08 09:45:59.563570944,0.0232867,-0.010166958482607447
2025-01-08 09:45:59.573363968,0.04610342,-0.008513899761533793
2025-01-08 09:45:59.583535872,0.03902996,-0.006838599799443783
2025-01-08 09:45:59.593468928,0.02427036,-0.005142633897674513
2025-01-08 09:45:59.603908096,0.00697249,-0.003427608266866372
2025-01-08 09:45:59.613436928,-0.01109451,-0.001695158360094891
2025-01-08 09:45:59.623661056,-0.02440757,5.305282564441917e-05
2025-01-08 09:45:59.633570816,-0.03245997,0.001815336477919824
2025-01-08 09:45:59.643600896,-0.03056347,0.003589979725602958
2025-01-08 09:45:59.653662976,-0.01312941,0.005375247422128095
2025-01-08 09:45:59.663489024,0.00734943,0.007169383953503783
2025-01-08 09:45:59.673371136,0.02458584,0.008970615069288534
2025-01-08 09:45:59.683545088,0.04492688,0.010777149734718456
2025-01-08 09:45:59.693403904,0.04878074,0.012587182002150695
2025-01-08 09:45:59.703830016,0.04009861,0.014398892899971889
2025-01-08 09:45:59.713516032,0.03270829,0.016210452337098002
2025-01-08 09:45:59.723520000,0.02145642,0.01802002102118167
2025-01-08 09:45:59.733645824,0.00917602,0.019825752388622324
2025-01-08 09:45:59.743451136,0.01310176,0.02162579454446854
2025-01-08 09:45:59.753539072,0.01892775,0.023418292210287527
2025-01-08 09:45:59.763737856,0.03034484,0.025201388678069273
2025-01-08 09:45:59.773412096,0.03644282,0.026973227768227245
2025-01-08 09:45:59.783787008,0.03460044,0.028731955789750203
2025-01-08 09:45:59.793523200,0.01369071,0.03047572350055872
2025-01-08 09:45:59.804419072,-0.00133198,0.03220268806611953
2025-01-08 09:45:59.813626112,0.00166863,0.033911015014367475
2025-01-08 09:45:59.823593984,0.01725799,0.03559888018499268
2025-01-08 09:45:59.833709056,0.01134145,0.03726447167115248
2025-01-08 09:45:59.843518976,0.0069434,0.03890599175167224
2025-01-08 09:45:59.853585920,0.01232874,0.04052165881181112
2025-01-08 09:45:59.863777024,0.01742762,0.04210970925067678
2025-01-08 09:45:59.873625088,0.01836044,0.04366839937338446
2025-01-08 09:45:59.883618048,0.02062911,0.045196007266070995
2025-01-08 09:45:59.893476096,0.02051896,0.04669083465188958
2025-01-08 09:45:59.904075008,0.0177682,0.04815120872612683
2025-01-08 09:45:59.913501952,0.01320988,0.04957548396860515
2025-01-08 09:45:59.924484096,-0.00326496,0.0509620439315547
2025-01-08 09:45:59.933886976,-0.02019095,0.052309303001156625
2025-01-08 09:45:59.944194048,-0.03485167,0.053615708130991424
2025-01-08 09:45:59.963956224,-0.04063052,0.05487974054564774
2025-01-08 09:45:59.963970816,-0.03194976,0.05609991741277348
2025-01-08 09:45:59.974160896,-0.01078647,0.05727479348188524
2025-01-08 09:45:59.983688192,0.00716889,0.05840296268827946
2025-01-08 09:45:59.993865984,0.02977955,0.05948305972042179
2025-01-08 09:46:00.003674112,0.03759128,0.06051376154922834
2025-01-08 09:46:00.013780992,0.03121239,0.061493788917682896
2025-01-08 09:46:00.023688192,0.0312438,0.062421907789278246
2025-01-08 09:46:00.033762048,0.0289253,0.06329693075380197
2025-01-08 09:46:00.043631104,0.02532351,0.06411771838903284
2025-01-08 09:46:00.053878016,0.01985228,0.0648831805769506
2025-01-08 09:46:00.063666944,0.00491983,0.06559227777311027
2025-01-08 09:46:00.073814016,-0.01585859,0.06624402222787035
2025-01-08 09:46:00.083834880,-0.02328622,0.06683747915821543
2025-01-08 09:46:00.093844992,-0.02869546,0.06737176786895753
2025-01-08 09:46:00.103863040,-0.02831006,0.06784606282214813
2025-01-08 09:46:00.113863936,-0.01078308,0.0682595946535845
2025-01-08 09:46:00.123876096,0.00675601,0.06861165113534119
2025-01-08 09:46:00.133883904,0.013942,0.06890157808331185
2025-01-08 09:46:00.143940864,0.01941657,0.06912878020879487
2025-01-08 09:46:00.153943040,0.02698404,0.06929272191321578
2025-01-08 09:46:00.164150016,0.02309084,0.0693929280251258
2025-01-08 09:46:00.173861120,0.01447618,0.06942898447867679
2025-01-08 09:46:00.183788032,0.00753474,0.06940053893282805
2025-01-08 09:46:00.193912064,0.0059346,0.06930730133059212
2025-01-08 09:46:00.203921152,0.00473034,0.06914904439769148
2025-01-08 09:46:00.213905152,0.00247175,0.06892560408004929
2025-01-08 09:46:00.223794944,0.00253111,0.06863687991959981
2025-01-08 09:46:00.233964800,0.00397688,0.06828283536796155
2025-01-08 09:46:00.243952896,0.00730091,0.06786349803757583
2025-01-08 09:46:00.253906944,0.00912708,0.06737895988997443
2025-01-08 09:46:00.264100096,0.00341046,0.06682937736089789
2025-01-08 09:46:00.273972992,-0.00643897,0.0662149714220498
2025-01-08 09:46:00.283979776,-0.01831084,0.06553602757933001
2025-01-08 09:46:00.294022912,-0.03389651,0.06479289580745407
2025-01-08 09:46:00.303826944,-0.03781337,0.06398599042092365
2025-01-08 09:46:00.313960192,-0.04706728,0.06311578988137741
2025-01-08 09:46:00.323981056,-0.04534519,0.06218283654141019
2025-01-08 09:46:00.333960960,-0.03410834,0.061187736325013106
2025-01-08 09:46:00.343841024,-0.02078521,0.060131158344842395
2025-01-08 09:46:00.353995008,-0.01161176,0.05901383445659458
2025-01-08 09:46:00.363987968,-0.01353222,0.05783655875081473
2025-01-08 09:46:00.374064896,-0.01852053,0.05660018698253926
2025-01-08 09:46:00.384158976,-0.0142706,0.05530563593921918
2025-01-08 09:46:00.394112000,-0.0064736,0.05395388274744385
2025-01-08 09:46:00.404175104,0.00723159,0.052545964119034554
2025-01-08 09:46:00.414010112,0.01407468,0.05108297553714128
2025-01-08 09:46:00.424175104,0.01210487,0.04956607038303113
2025-01-08 09:46:00.434320896,0.00970268,0.047996459004318766
2025-01-08 09:46:00.444152064,0.00648427,0.04637540772544127
2025-01-08 09:46:00.454025984,0.01298869,0.04470423780123899
2025-01-08 09:46:00.463944960,0.02192038,0.0429843243145595
2025-01-08 09:46:00.473944064,0.02657861,0.04121709501885548
2025-01-08 09:46:00.484100096,0.02673173,0.03940402912680163
2025-01-08 09:46:00.494028032,0.02000982,0.03754665604600827
2025-01-08 09:46:00.504292864,0.01523507,0.035646554062961376
2025-01-08 09:46:00.513919232,0.00808424,0.03370534897637039
2025-01-08 09:46:00.524141056,0.00231355,0.031724712681153636
2025-01-08 09:46:00.534115072,-0.01052141,0.029706361704340344
2025-01-08 09:46:00.544517120,-0.02128941,0.027652055694216342
2025-01-08 09:46:00.554053120,-0.0268454,0.025563595864086158
2025-01-08 09:46:00.564203008,-0.02962965,0.023442823392069375
2025-01-08 09:46:00.574001152,-0.02429646,0.021291617778392658
2025-01-08 09:46:00.584028928,-0.01761758,0.019111895161682605
2025-01-08 09:46:00.594130944,-0.00758779,0.01690560659580169
2025-01-08 09:46:00.604196096,0.00094295,0.014674736288815722
2025-01-08 09:46:00.614031104,0.00409555,0.012421299805711918
2025-01-08 09:46:00.624207872,0.00796968,0.010147342236528271
2025-01-08 09:46:00.634285824,0.00230807,0.007854936331588954
2025-01-08 09:46:00.644171008,0.00141466,0.005546180605572161
2025-01-08 09:46:00.654063104,0.00610358,0.00322319741217135
2025-01-08 09:46:00.664233984,0.01786131,0.0008881309911381391
2025-01-08 09:46:00.674312960,0.03249121,-0.001456854510473031
2025-01-08 09:46:00.684143104,0.04653704,-0.0038095770410149594
2025-01-08 09:46:00.694228992,0.05285573,-0.006167838669040835
2025-01-08 09:46:00.704327168,0.04575759,-0.008529427628286635
2025-01-08 09:46:00.714313984,0.02959299,-0.010892120380928903
2025-01-08 09:46:00.724335872,0.00968617,-0.013253683697180673
2025-01-08 09:46:00.734381824,-0.00654018,-0.015611876749272443
2025-01-08 09:46:00.744289024,-0.01520056,-0.017964453217850944
2025-01-08 09:46:00.754132992,-0.01265544,-0.0203091634088082
2025-01-08 09:46:00.764306176,-0.00720036,-0.0226437563785479
2025-01-08 09:46:00.774214144,0.00133288,-0.02496598206567877
2025-01-08 09:46:00.784324864,0.0030542,-0.027273593427122107
2025-01-08 09:46:00.794308864,0.00163972,-0.029564348576608834
2025-01-08 09:46:00.804325120,-0.00291878,-0.031836012923539554
2025-01-08 09:46:00.814317824,-0.00062573,-0.0340863613101754
2025-01-08 09:46:00.824183040,-0.00433928,-0.036313180145129756
2025-01-08 09:46:00.834428928,-0.00972438,-0.03851426953112907
2025-01-08 09:46:00.844335104,-0.0187431,-0.04068744538501318
2025-01-08 09:46:00.854221056,-0.01776522,-0.04283054154795321
2025-01-08 09:46:00.864445952,-0.01804054,-0.044941411883869145
2025-01-08 09:46:00.874358784,-0.02332008,-0.047017932364037056
2025-01-08 09:46:00.884249088,-0.02548659,-0.049058003135890205
2025-01-08 09:46:00.894418944,-0.02021104,-0.051059550574024115
2025-01-08 09:46:00.904273920,-0.01325822,-0.05302052931143684
2025-01-08 09:46:00.914334976,-0.00884926,-0.0549389242490459
2025-01-08 09:46:00.924452096,-0.00395471,-0.05681275254154416
2025-01-08 09:46:00.934376960,0.00144428,-0.058640065557676334
2025-01-08 09:46:00.944428032,-0.00818431,-0.06041895081303886
2025-01-08 09:46:00.954451968,-0.01411134,-0.062147533873526825
2025-01-08 09:46:00.964471040,-0.01294285,-0.06382398022758339
2025-01-08 09:46:00.974622976,-0.0163458,-0.06544649712542551
2025-01-08 09:46:00.984509952,-0.01814806,-0.06701333538345475
2025-01-08 09:46:00.994462976,-0.01954025,-0.06852279115208863
2025-01-08 09:46:01.004391936,-0.00419581,-0.06997320764528367
2025-01-08 09:46:01.014269952,-0.00392336,-0.0713629768300481
2025-01-08 09:46:01.024386816,0.00227517,-0.0726905410742877
2025-01-08 09:46:01.034269184,0.00560087,-0.07395439475135347
2025-01-08 09:46:01.044451072,0.0097906,-0.07515308579970859
2025-01-08 09:46:01.054446080,0.0014987,-0.07628521723616517
2025-01-08 09:46:01.064364032,0.00149602,-0.0773494486211855
2025-01-08 09:46:01.074383872,0.00109041,-0.07834449747478575
2025-01-08 09:46:01.084377088,0.00324315,-0.07926914064162305
2025-01-08 09:46:01.094363904,0.00710654,-0.08012221560389289
2025-01-08 09:46:01.104397056,0.00480491,-0.08090262174071261
2025-01-08 09:46:01.114387968,0.00328755,-0.0816093215327107
2025-01-08 09:46:01.124475904,-0.0030846,-0.08224134171059866
2025-01-08 09:46:01.134618880,-0.00559461,-0.08279777434654219
2025-01-08 09:46:01.144602112,-0.00860631,-0.08327777788721291
2025-01-08 09:46:01.154427136,-0.00712132,-0.08368057812744299
2025-01-08 09:46:01.164554240,-0.00196546,-0.08400546912346926
2025-01-08 09:46:01.174585088,0.00303704,-0.08425181404479962
2025-01-08 09:46:01.184501760,0.0128994,-0.08441904596379901
2025-01-08 09:46:01.194552064,0.01559734,-0.084506668582141
2025-01-08 09:46:01.204706048,0.01621372,-0.08451425689333589
2025-01-08 09:46:01.214608896,0.01562428,-0.08444145778060018
2025-01-08 09:46:01.224594944,0.01483661,-0.08428799054939518
2025-01-08 09:46:01.234697984,0.01147103,-0.08405364739401654
2025-01-08 09:46:01.244924160,0.00882608,-0.08373829379768798
2025-01-08 09:46:01.254849792,0.00046176,-0.08334186886565943
2025-01-08 09:46:01.264851968,-0.00431913,-0.08286438559088691
2025-01-08 09:46:01.274808832,-0.01193291,-0.08230593105191884
2025-01-08 09:46:01.284719872,0.00495505,-0.08166666654269071
2025-01-08 09:46:01.294612992,0.01352644,-0.08094682763397963
2025-01-08 09:46:01.304851968,0.02182448,-0.0801467241663434
2025-01-08 09:46:01.314488832,0.02930903,-0.07926674017442838
2025-01-08 09:46:01.324459008,0.02803731,-0.07830733374259276
2025-01-08 09:46:01.334759936,0.02733868,-0.07726903679186033
2025-01-08 09:46:01.344755968,0.01944411,-0.0761524547982777
2025-01-08 09:46:01.354576128,0.01886863,-0.0749582664428179
2025-01-08 09:46:01.364761088,0.01494783,-0.07368722319303271
2025-01-08 09:46:01.374653952,0.02053559,-0.07234014881672146
2025-01-08 09:46:01.384687872,0.02189708,-0.07091793882794911
2025-01-08 09:46:01.394587904,0.02326077,-0.06942155986580516
2025-01-08 09:46:01.404908032,0.02123439,-0.06785204900636492
2025-01-08 09:46:01.414638080,0.01816535,-0.06621051300836972
2025-01-08 09:46:01.424808960,0.01110113,-0.06449812749321093
2025-01-08 09:46:01.434715136,0.00820333,-0.06271613605986118
2025-01-08 09:46:01.444814848,0.0187934,-0.06086584933545834
2025-01-08 09:46:01.454675968,0.02016097,-0.05894864396230895
2025-01-08 09:46:01.464839936,0.01774728,-0.056965961522136434
2025-01-08 09:46:01.474652160,0.0161404,-0.05491930739846003
2025-01-08 09:46:01.484721920,0.01330626,-0.052810249578049376
2025-01-08 09:46:01.494889984,0.00041395,-0.050640417392454354
2025-01-08 09:46:01.504899072,-0.00975507,-0.048411500200671934
2025-01-08 09:46:01.514846976,-0.00622624,-0.046125246014060615
2025-01-08 09:46:01.524889088,0.00916976,-0.043783460064676843
2025-01-08 09:46:01.534918144,0.01946229,-0.041388003318252334
2025-01-08 09:46:01.544900864,0.02697438,-0.03894079093309196
2025-01-08 09:46:01.554897920,0.0238564,-0.03644379066621897
2025-01-08 09:46:01.564933120,0.02004057,-0.033899021228145795
2025-01-08 09:46:01.574765056,0.02115208,-0.031308550587700865
2025-01-08 09:46:01.584768000,0.01079869,-0.028674494228383925
2025-01-08 09:46:01.594902016,0.00861418,-0.025999013357776015
2025-01-08 09:46:01.604996864,0.00084925,-0.0232843130715716
2025-01-08 09:46:01.614918912,-0.01453173,-0.02053264047384359
2025-01-08 09:46:01.624947968,-0.02050775,-0.01774628275519852
2025-01-08 09:46:01.634844928,-0.02126807,-0.014927565230515666
2025-01-08 09:46:01.645051904,-0.02439088,-0.012078849338008377
2025-01-08 09:46:01.654956032,-0.01995552,-0.009202530601377483
2025-01-08 09:46:01.664982016,-0.00807095,-0.0063010365568698075
2025-01-08 09:46:01.674809856,0.00100714,-0.0033768246470846667
2025-01-08 09:46:01.684845056,0.0040471,-0.0004323800834073823
2025-01-08 09:46:01.695034880,-0.00055623,0.002529786321022742
2025-01-08 09:46:01.705060096,-0.00678283,0.005507140345869806
2025-01-08 09:46:01.714790144,-0.01083946,0.008497126583718265
2025-01-08 09:46:01.726854144,-0.0107013,0.01149717068375573
2025-01-08 09:46:01.735068160,-0.01077813,0.01450468161700629
2025-01-08 09:46:01.745069056,-0.00634432,0.01751705396107284
2025-01-08 09:46:01.755323904,-0.00370389,0.02053167020232949
2025-01-08 09:46:01.765080832,-0.00593626,0.023545903053485986
2025-01-08 09:46:01.775064064,-0.01134717,0.026557117784426047
2025-01-08 09:46:01.785104896,-0.01320088,0.029562674564211622
2025-01-08 09:46:01.795156992,-0.01666522,0.03255993081212911
2025-01-08 09:46:01.805154048,-0.0226934,0.03554624355564082
2025-01-08 09:46:01.815078144,-0.02614045,0.03851897179310172
2025-01-08 09:46:01.825069056,-0.02472389,0.04147547885908733
2025-01-08 09:46:01.835164160,-0.02585262,0.04441313479017907
2025-01-08 09:46:01.845079808,-0.02156144,0.04732931868904847
2025-01-08 09:46:01.855076096,-0.01355493,0.050221421084676886
2025-01-08 09:46:01.864963072,-0.00268006,0.05308684628655633
2025-01-08 09:46:01.874959872,0.00819564,0.05592301473071024
2025-01-08 09:46:01.885003008,0.01430285,0.058727365315386054
2025-01-08 09:46:01.895175936,0.01198918,0.061497357724272735
2025-01-08 09:46:01.905188096,0.00186354,0.06423047473510742
2025-01-08 09:46:01.915153920,-0.00207508,0.0669242245115476
2025-01-08 09:46:01.926835968,-0.00771201,0.06957614287619267
2025-01-08 09:46:01.935482112,-0.01382506,0.07218379556266134
2025-01-08 09:46:01.945154048,-0.0192467,0.07474478044463999
2025-01-08 09:46:01.955208960,-0.02535039,0.07725672973984091
2025-01-08 09:46:01.965105920,-0.02827114,0.0797173121868279
2025-01-08 09:46:01.975272960,-0.02314377,0.08212423519268922
2025-01-08 09:46:01.985131008,-0.01009011,0.08447524694956268
2025-01-08 09:46:01.995070976,0.00579822,0.08676813851804209
2025-01-08 09:46:02.005111040,0.01063001,0.08900074587552508
2025-01-08 09:46:02.015280896,0.00670439,0.09117095192758884
2025-01-08 09:46:02.025274880,0.00478274,0.09327668848051551
2025-01-08 09:46:02.035280896,0.00532556,0.09531593817311784
2025-01-08 09:46:02.045124096,0.00247175,0.0972867363660548
2025-01-08 09:46:02.055208960,-0.00434035,0.09918717298686157
2025-01-08 09:46:02.065249024,-0.00781626,0.10101539432895688
2025-01-08 09:46:02.075303936,-0.00485969,0.10276960480293035
2025-01-08 09:46:02.085298944,-0.00220394,0.10444806863845706
2025-01-08 09:46:02.095140096,-0.00246942,0.10604911153522281
2025-01-08 09:46:02.105315072,0.00268942,0.1075711222612988
2025-01-08 09:46:02.115425024,0.00118834,0.10901255419743884
2025-01-08 09:46:02.125296128,0.00236154,0.11037192682582976
2025-01-08 09:46:02.135488000,-0.00034523,0.11164782716186845
2025-01-08 09:46:02.145447936,-0.0035255,0.11283891112759317
2025-01-08 09:46:02.155419136,-0.00481451,0.11394390486544412
2025-01-08 09:46:02.165369088,-0.00484705,0.11496160599108782
2025-01-08 09:46:02.175309824,-0.00016147,0.11589088478408645
2025-01-08 09:46:02.185334016,-0.00160605,0.11673068531525434
2025-01-08 09:46:02.195319040,-0.00390649,0.11748002650959796
2025-01-08 09:46:02.205430016,-0.0004735,0.1181380031437927
2025-01-08 09:46:02.215423232,0.00474751,0.11870378677721084
2025-01-08 09:46:02.225435904,0.00086659,0.11917662661557064
2025-01-08 09:46:02.235426816,-0.00396669,0.11955585030634155
2025-01-08 09:46:02.245459968,-0.0195272,0.11984086466509651
2025-01-08 09:46:02.255238144,-0.03802162,0.12003115633207122
2025-01-08 09:46:02.265445120,-0.05259353,0.12012629235824424
2025-01-08 09:46:02.275415040,-0.05085343,0.12012592072032481
2025-01-08 09:46:02.285451008,-0.0440371,0.12002977076409108
2025-01-08 09:46:02.295433984,-0.03266424,0.11983765357559115
2025-01-08 09:46:02.305739008,-0.0170958,0.11954946227978427
2025-01-08 09:46:02.315498240,-0.00427163,0.11916517226626065
2025-01-08 09:46:02.325583104,0.00200671,0.11868484134175142
2025-01-08 09:46:02.335320832,-0.00294691,0.11810860980919971
2025-01-08 09:46:02.345659136,-0.00535494,0.117436700473236
2025-01-08 09:46:02.355473920,-0.00936919,0.11666941857196352
2025-01-08 09:46:02.365483008,-0.00271177,0.11580715163502878
2025-01-08 09:46:02.375778816,0.00687307,0.11485036926801892
2025-01-08 09:46:02.385710848,0.01930398,0.11379962286329537
2025-01-08 09:46:02.395958016,0.02722704,0.11265554523743652
2025-01-08 09:46:02.405396992,0.03366667,0.11141885019553596
2025-01-08 09:46:02.415417856,0.04635632,0.11009033202266265
2025-01-08 09:46:02.425524992,0.05791134,0.10867086490285945
2025-01-08 09:46:02.435313920,0.07136166,0.10716140226612425
2025-01-08 09:46:02.445463808,0.07516915,0.10556297606387861
2025-01-08 09:46:02.455395072,0.07561916,0.1038766959734994
2025-01-08 09:46:02.465580032,0.06998312,0.1021037485325532
2025-01-08 09:46:02.475395840,0.058559,0.10024539620343276
2025-01-08 09:46:02.485580032,0.04297906,0.09830297636916749
2025-01-08 09:46:02.495417088,0.03171849,0.09627790026123394
2025-01-08 09:46:02.505379072,0.02270579,0.09417165182026392
2025-01-08 09:46:02.515703040,0.01946723,0.09198578649059913
2025-01-08 09:46:02.525600000,0.00944227,0.08972192994971429
2025-01-08 09:46:02.535627008,-0.00270295,0.0873817767735814
2025-01-08 09:46:02.545646848,-0.01436663,0.08496708903910981
2025-01-08 09:46:02.555758848,-0.02041256,0.08247969486485802
2025-01-08 09:46:02.565697024,-0.0290007,0.07992148689126499
2025-01-08 09:46:02.575685888,-0.03884667,0.07729442070171087
2025-01-08 09:46:02.585508096,-0.03704351,0.07460051318576563
2025-01-08 09:46:02.595504128,-0.03469014,0.07184184084604253
2025-01-08 09:46:02.605669888,-0.03335857,0.06902053805012481
2025-01-08 09:46:02.615750144,-0.03375238,0.06613879522908327
2025-01-08 09:46:02.625693952,-0.02455014,0.06319885702415555
2025-01-08 09:46:02.635719936,-0.01747215,0.060203020383202036
2025-01-08 09:46:02.645549056,-0.00734663,0.057153632608605884
2025-01-08 09:46:02.655714048,0.00137609,0.05405308935832471
2025-01-08 09:46:02.665576960,0.00506389,0.050903832601850114
2025-01-08 09:46:02.675704064,0.01206362,0.0477083485328686
2025-01-08 09:46:02.685740032,0.02158856,0.044469165440466224
2025-01-08 09:46:02.695686144,0.0296914,0.041188851540748334
2025-01-08 09:46:02.705609984,0.0448392,0.037870012770792306
2025-01-08 09:46:02.715759872,0.04997694,0.034515290546881995
2025-01-08 09:46:02.725632000,0.05031967,0.03112735948900845
2025-01-08 09:46:02.735892992,0.03812659,0.027708925113652583
2025-01-08 09:46:02.745719040,0.0240671,0.024262721496898867
2025-01-08 09:46:02.755734016,0.01446837,0.020791508909952593
2025-01-08 09:46:02.765796864,0.00791979,0.01729807142916683
2025-01-08 09:46:02.775887104,6.86e-05,0.013785214522702541
2025-01-08 09:46:02.785787136,-0.00281137,0.010255762615975944
2025-01-08 09:46:02.795640064,-0.00057298,0.006712556638061601
2025-01-08 09:46:02.805664000,7.69e-06,0.003158451551243671
2025-01-08 09:46:02.815852032,0.00923777,-0.00040368613407905656
2025-01-08 09:46:02.825826048,0.02117318,-0.003970980856909166
2025-01-08 09:46:02.835885056,0.02999902,-0.007540550513354636
2025-01-08 09:46:02.845783040,0.03179693,-0.0111095089722721
2025-01-08 09:46:02.855720960,0.023651,-0.014674968596594484
2025-01-08 09:46:02.865927936,0.01782751,-0.018234042768079474
2025-01-08 09:46:02.875868928,0.01689941,-0.021783848413212986
2025-01-08 09:46:02.885920000,0.02290046,-0.02532150852799379
2025-01-08 09:46:02.895912960,0.02693248,-0.02884415469933084
2025-01-08 09:46:02.905939968,0.03486151,-0.032348929620783055
2025-01-08 09:46:02.917281024,0.04877502,-0.03583298960037182
2025-01-08 09:46:02.925793792,0.06433511,-0.03929350705820928
2025-01-08 09:46:02.935895040,0.07682049,-0.04272767301168464
2025-01-08 09:46:02.945790976,0.08535814,-0.0461326995459667
2025-01-08 09:46:02.955817984,0.08673114,-0.049505822267588706
2025-01-08 09:46:02.965970944,0.09801304,-0.052844302738896495
2025-01-08 09:46:02.976078080,0.11765355,-0.05614543089115688
2025-01-08 09:46:02.986138112,0.1481393,-0.0594065274141401
2025-01-08 09:46:02.996064000,0.17338538,-0.06262494612000992
2025-01-08 09:46:03.005925888,0.19019669,-0.06579807627937763
2025-01-08 09:46:03.015897088,0.1997605,-0.0689233449273985
2025-01-08 09:46:03.026124032,0.20564789,-0.07199821913781569
2025-01-08 09:46:03.036154112,0.20608634,-0.07502020826288291
2025-01-08 09:46:03.045996032,0.20406735,-0.07798686613712943
2025-01-08 09:46:03.055883008,0.20547265,-0.08089579324295805
2025-01-08 09:46:03.065895168,0.20782709,-0.0837446388361023
2025-01-08 09:46:03.075949824,0.2222262,-0.08653110302900698
2025-01-08 09:46:03.085884928,0.24854672,-0.08925293883022382
2025-01-08 09:46:03.096721920,0.2685535,-0.09190795413796429
2025-01-08 09:46:03.106384128,0.28871375,-0.09449401368598163
2025-01-08 09:46:03.115942912,0.30914319,-0.09700904094000291
2025-01-08 09:46:03.126107904,0.33552998,-0.09945101994297136
2025-01-08 09:46:03.136090880,0.35790092,-0.1018179971074066
2025-01-08 09:46:03.146018048,0.36757624,-0.10410808295323645
2025-01-08 09:46:03.156016128,0.35295397,-0.10631945378950149
2025-01-08 09:46:03.165953024,0.33940166,-0.10845035333838485
2025-01-08 09:46:03.176121856,0.33053386,-0.11049909430006992
2025-01-08 09:46:03.186273024,0.31502479,-0.11246405985698021
2025-01-08 09:46:03.195919104,0.30073321,-0.11434370511601284
2025-01-08 09:46:03.206193920,0.29228413,-0.11613655848742789
2025-01-08 09:46:03.215965952,0.28059435,-0.1178412229991163
2025-01-08 09:46:03.228051968,0.27228153,-0.11945637754502468
2025-01-08 09:46:03.235988992,0.25500107,-0.12098077806657315
2025-01-08 09:46:03.246043904,0.23912036,-0.12241325866596671
2025-01-08 09:46:03.256151040,0.19301039,-0.12375273265035441
2025-01-08 09:46:03.266246144,0.14193052,-0.12499819350586149
2025-01-08 09:46:03.276161792,0.07627422,-0.1261487158005733
2025-01-08 09:46:03.286181888,0.00056064,-0.12720345601562077
2025-01-08 09:46:03.296171776,-0.04155838,-0.12816165330357887
2025-01-08 09:46:03.306200064,-0.0588116,-0.12902263017345317
2025-01-08 09:46:03.316184064,-0.03928208,-0.12978579310159952
2025-01-08 09:46:03.326162176,0.00384068,-0.13045063306798568
2025-01-08 09:46:03.336268032,0.05976462,-0.13101672601727174
2025-01-08 09:46:03.346275072,0.09496176,-0.13148373324425386
2025-01-08 09:46:03.356471040,0.09568065,-0.1318514017032843
2025-01-08 09:46:03.366384128,0.02838588,-0.1321195642413507
2025-01-08 09:46:03.376349952,-0.04661644,-0.1322881397545617
2025-01-08 09:46:03.386110976,-0.12125129,-0.13235713326786303
2025-01-08 09:46:03.396073216,-0.16893595,-0.13232663593786845
2025-01-08 09:46:03.406146048,-0.16229397,-0.13219682497876944
2025-01-08 09:46:03.416132864,-0.12334353,-0.13196796351134654
2025-01-08 09:46:03.426105088,-0.08287203,-0.13164040033518493
2025-01-08 09:46:03.436173056,-0.06399602,-0.13121456962425937
2025-01-08 09:46:03.446227968,-0.06936735,-0.13069099054612657
2025-01-08 09:46:03.456274944,-0.0923155,-0.13007026680503112
2025-01-08 09:46:03.466279936,-0.15084898,-0.1293530861093004
2025-01-08 09:46:03.476273152,-0.18625021,-0.1285402195634745
2025-01-08 09:46:03.486341120,-0.20719868,-0.12763252098568176
2025-01-08 09:46:03.496141824,-0.2355997,-0.12663092615084146
2025-01-08 09:46:03.506281984,-0.24394727,-0.1255364519603437
2025-01-08 09:46:03.516379136,-0.22381651,-0.12435019553891949
2025-01-08 09:46:03.526376960,-0.20694089,-0.12307333325948472
2025-01-08 09:46:03.536225024,-0.18029839,-0.12170711969680308
2025-01-08 09:46:03.546220032,-0.1576668,-0.12025288651088405
2025-01-08 09:46:03.556251136,-0.1399892,-0.11871204126108816
2025-01-08 09:46:03.567877120,-0.13098317,-0.1170860661519826
2025-01-08 09:46:03.576237824,-0.11017275,-0.11537651671204883
2025-01-08 09:46:03.586311936,-0.11398757,-0.11358502040640386
2025-01-08 09:46:03.596267008,-0.14426243,-0.11171327518476276
2025-01-08 09:46:03.606287104,-0.18653482,-0.10976304796592255
2025-01-08 09:46:03.616365824,-0.21950108,-0.10773617306011214
2025-01-08 09:46:03.626578176,-0.26558036,-0.10563455053060399
2025-01-08 09:46:03.636281856,-0.29771131,-0.10346014449604438
2025-01-08 09:46:03.646326016,-0.31418073,-0.10121498137501087
2025-01-08 09:46:03.656440064,-0.34055424,-0.09890114807435689
2025-01-08 09:46:03.666502912,-0.35650951,-0.09652079012296116
2025-01-08 09:46:03.676465920,-0.35804039,-0.09407610975254174
2025-01-08 09:46:03.686697984,-0.35459673,-0.09156936392725176
2025-01-08 09:46:03.696345088,-0.38238025,-0.08900286232381373
2025-01-08 09:46:03.707252992,-0.41314799,-0.08637896526400074
2025-01-08 09:46:03.716708864,-0.43337804,-0.08370008160131392
2025-01-08 09:46:03.726629888,-0.44836247,-0.08096866656374789
2025-01-08 09:46:03.736397056,-0.46641761,-0.07818721955457886
2025-01-08 09:46:03.746390016,-0.47255474,-0.07535828191314677
2025-01-08 09:46:03.756335104,-0.4513014,-0.07248443463764105
2025-01-08 09:46:03.766380032,-0.43829554,-0.06956829607193502
2025-01-08 09:46:03.776484864,-0.4169932,-0.06661251955854866
2025-01-08 09:46:03.786554112,-0.3950004,-0.06361979105984679
2025-01-08 09:46:03.796521984,-0.40880609,-0.06059282674961666
2025-01-08 09:46:03.806557952,-0.42320371,-0.05753437057718985
2025-01-08 09:46:03.816433920,-0.44607526,-0.054447191806303724
2025-01-08 09:46:03.826683136,-0.45566475,-0.05133408253092026
2025-01-08 09:46:03.836737024,-0.44404817,-0.04819785517024005
2025-01-08 09:46:03.846788864,-0.42214179,-0.0450413399451751
2025-01-08 09:46:03.856589056,-0.37385404,-0.041867382338552354
2025-01-08 09:46:03.866703104,-0.33547604,-0.038678840541346404
2025-01-08 09:46:03.876707072,-0.3268708,-0.035478582887244196
2025-01-08 09:46:03.886555904,-0.32026267,-0.03226948527786356
2025-01-08 09:46:03.896814080,-0.29978186,-0.02905442860095156
2025-01-08 09:46:03.906422016,-0.26855016,-0.025836296143897552
2025-01-08 09:46:03.916524800,-0.23313409,-0.022617971004905025
2025-01-08 09:46:03.926498816,-0.2053827,-0.019402333504161918
2025-01-08 09:46:03.936697088,-0.18959504,-0.01619225859735691
2025-01-08 09:46:03.946701056,-0.19070143,-0.012990613293885364
2025-01-08 09:46:03.956653056,-0.17637831,-0.009800254082083537
2025-01-08 09:46:03.966695936,-0.19297981,-0.006624024363829233
2025-01-08 09:46:03.976686080,-0.21358711,-0.0034647519008331688
2025-01-08 09:46:03.986548992,-0.19569397,-0.00032524627494143725
2025-01-08 09:46:03.996583936,-0.17605406,0.002791703635245401
2025-01-08 09:46:04.006583808,-0.13434106,0.005883332159144681
2025-01-08 09:46:04.016602112,-0.1051755,0.008946899318078972
2025-01-08 09:46:04.026628864,-0.09098887,0.011979693286018877
2025-01-08 09:46:04.036899072,-0.09144056,0.01497903282494495
2025-01-08 09:46:04.046628864,-0.10442358,0.017942269692611357
2025-01-08 09:46:04.056610048,-0.11403602,0.0208667910205189
2025-01-08 09:46:04.066750976,-0.11418134,0.023750021659933403
2025-01-08 09:46:04.076589056,-0.11540312,0.026589426493810495
2025-01-08 09:46:04.086627072,-0.10070378,0.02938251271251959
2025-01-08 09:46:04.096749056,-0.08369243,0.032126832051291986
2025-01-08 09:46:04.106635008,-0.08011144,0.03481998298735198
2025-01-08 09:46:04.116792832,-0.09087646,0.03745961289472455
2025-01-08 09:46:04.126812928,-0.09563148,0.04004342015475271
2025-01-08 09:46:04.136677120,-0.08796257,0.04256915622039606
2025-01-08 09:46:04.146840064,-0.08063066,0.045034627632422906
2025-01-08 09:46:04.156908032,-0.08030975,0.047437697985652595
2025-01-08 09:46:04.166742016,-0.07761323,0.04977628984344929
2025-01-08 09:46:04.176686080,-0.06548178,0.05204838659871178
2025-01-08 09:46:04.186755840,-0.05734259,0.05425203427965883
2025-01-08 09:46:04.196960000,-0.0606432,0.05638534329875051
2025-01-08 09:46:04.206929920,-0.04339653,0.058446490143143785
2025-01-08 09:46:04.216896000,-0.04261023,0.060433719005130046
2025-01-08 09:46:04.226874112,-0.03407538,0.06234534335105742
2025-01-08 09:46:04.236764928,-0.0051623,0.06417974742729572
2025-01-08 09:46:04.246928896,0.02848017,0.06593538770185821
2025-01-08 09:46:04.256781056,0.04960114,0.06761079424035364
2025-01-08 09:46:04.266761984,0.05129856,0.06920457201500106
2025-01-08 09:46:04.276901888,0.05727226,0.07071540214549836
2025-01-08 09:46:04.287014912,0.0591532,0.0721420430706003
2025-01-08 09:46:04.297097984,0.05538332,0.07348333164932287
2025-01-08 09:46:04.307111936,0.05750257,0.07473818419075333
2025-01-08 09:46:04.317174016,0.06893867,0.07590559741151272
2025-01-08 09:46:04.326900992,0.09216338,0.07698464931998081
2025-01-08 09:46:04.337011200,0.12251121,0.07797450002646121
2025-01-08 09:46:04.346941952,0.15979826,0.07887439247853023
2025-01-08 09:46:04.356952832,0.19767559,0.07968365312088437
2025-01-08 09:46:04.366944000,0.20005172,0.08040169247906377
2025-01-08 09:46:04.377069056,0.18757075,0.08102800566650475
2025-01-08 09:46:04.387181056,0.18549174,0.08156217281444042
2025-01-08 09:46:04.396881152,0.17636603,0.08200385942423893
2025-01-08 09:46:04.407026944,0.18263435,0.08235281664184015
2025-01-08 09:46:04.416932096,0.221937,0.08260888145402373
2025-01-08 09:46:04.426900992,0.27631116,0.0827719768063089
2025-01-08 09:46:04.436827904,0.30585712,0.08284211164236242
2025-01-08 09:46:04.446994944,0.29435366,0.08281938086485954
2025-01-08 09:46:04.456964096,0.27500749,0.08270396521781517
2025-01-08 09:46:04.467039232,0.26677722,0.0824961310904747
2025-01-08 09:46:04.477061120,0.26319832,0.08219623024292635
2025-01-08 09:46:04.487099904,0.26058012,0.08180469945366459
2025-01-08 09:46:04.497222912,0.27558655,0.08132206008941106
2025-01-08 09:46:04.507005952,0.30260843,0.08074891759756615
2025-01-08 09:46:04.517131008,0.29929674,0.08008596092173727
2025-01-08 09:46:04.527079936,0.28657866,0.07933396184085907
2025-01-08 09:46:04.536889088,0.26516348,0.07849377423249271
2025-01-08 09:46:04.546947840,0.24741721,0.07756633326095794
2025-01-08 09:46:04.557185792,0.23021162,0.07655265449102332
2025-01-08 09:46:04.567126016,0.22225827,0.07545383292794766
2025-01-08 09:46:04.577097984,0.22047013,0.07427104198473049
2025-01-08 09:46:04.587168000,0.20452845,0.07300553237750093
2025-01-08 09:46:04.597176064,0.18843234,0.07165863095003694
2025-01-08 09:46:04.607222016,0.18102098,0.07023173942847237
2025-01-08 09:46:04.617181952,0.15969497,0.06872633310731582
2025-01-08 09:46:04.627213056,0.14237821,0.06714395946796503
2025-01-08 09:46:04.637240832,0.11789608,0.06548623673096504
2025-01-08 09:46:04.647170048,0.10122746,0.06375485234332005
2025-01-08 09:46:04.657669120,0.09379452,0.061951561402225484
2025-01-08 09:46:04.667040000,0.07818091,0.060078185016649306
2025-01-08 09:46:04.677196032,0.05005807,0.058136608608245745
2025-01-08 09:46:04.687339008,0.00698662,0.056128780153144146
2025-01-08 09:46:04.697212928,-0.03270578,0.054056708366205034
2025-01-08 09:46:04.707344128,-0.07223225,0.05192246082939651
2025-01-08 09:46:04.717185024,-0.09110522,0.0497281620659861
2025-01-08 09:46:04.727217920,-0.08816302,0.04747599156230356
2025-01-08 09:46:04.737412096,-0.06341344,0.045168181738870605
2025-01-08 09:46:04.747230976,-0.02987695,0.04280701587274467
2025-01-08 09:46:04.757570048,0.00582755,0.04039482597296985
2025-01-08 09:46:04.767335936,0.03765464,0.03793399061106688
2025-01-08 09:46:04.777193984,0.06381583,0.035426932708543815
2025-01-08 09:46:04.787191040,0.09691405,0.03287611728344093
2025-01-08 09:46:04.797236992,0.13554877,0.030284049157967254
2025-01-08 09:46:04.807315968,0.17010009,0.02765327062932122
2025-01-08 09:46:04.817210880,0.1892184,0.024986359105820012
2025-01-08 09:46:04.827384832,0.20284468,0.02228592471049975
2025-01-08 09:46:04.837254144,0.2070896,0.019554607854372942
2025-01-08 09:46:04.847294208,0.20225209,0.016795076781565714
2025-01-08 09:46:04.857299968,0.19294935,0.014010025088576253
2025-01-08 09:46:04.867187968,0.18431139,0.011202169219925751
2025-01-08 09:46:04.877298176,0.17462605,0.008374245942496687
2025-01-08 09:46:04.887301888,0.18185425,0.005529009800865645
2025-01-08 09:46:04.897513984,0.19380003,0.002669230555967818
2025-01-08 09:46:04.917414912,0.23091573,-0.00020230939056335904
2025-01-08 09:46:04.917428992,0.27718472,-0.003082817584018622
2025-01-08 09:46:04.945995008,0.32412219,-0.005969494113823581
2025-01-08 09:46:04.946016000,0.37050426,-0.008859534217954832
2025-01-08 09:46:04.947375104,0.42295808,-0.011750130892171284
2025-01-08 09:46:04.957784832,0.44965178,-0.01463847750166309
2025-01-08 09:46:04.967910144,0.43640077,-0.017521770392720452
2025-01-08 09:46:04.977427968,0.42910957,-0.020397211502019626
2025-01-08 09:46:04.987355904,0.43152744,-0.02326201096112996
2025-01-08 09:46:04.997488896,0.42173982,-0.026113389693842023
2025-01-08 09:46:05.007324928,0.42643386,-0.028948582003930114
2025-01-08 09:46:05.017854976,0.41055208,-0.031764838150964515
2025-01-08 09:46:05.027602944,0.37248451,-0.03455942691180109
2025-01-08 09:46:05.037494784,0.30173534,-0.037329638125387775
2025-01-08 09:46:05.047291136,0.19327605,-0.04007278521854144
2025-01-08 09:46:05.057490176,0.10787183,-0.042786207710366106
2025-01-08 09:46:05.068617984,0.07431167,-0.045467273692999674
2025-01-08 09:46:05.077366016,0.08591974,-0.048113382286400094
2025-01-08 09:46:05.087387136,0.13446319,-0.05072196606490127
2025-01-08 09:46:05.097500928,0.16940862,-0.05329049345329885
2025-01-08 09:46:05.107386112,0.20339978,-0.05581647109024629
2025-01-08 09:46:05.117894912,0.20830715,-0.058297446156776365
2025-01-08 09:46:05.127516928,0.17207652,-0.06073100866779297
2025-01-08 09:46:05.137484032,0.10660219,-0.06311479372440805
2025-01-08 09:46:05.147538944,0.01963127,-0.06544648372503584
2025-01-08 09:46:05.157600000,-0.04942638,-0.0677238105331978
2025-01-08 09:46:05.169858048,-0.08752489,-0.06994455760001861
2025-01-08 09:46:05.177675008,-0.08012676,-0.07210656203944779
2025-01-08 09:46:05.187584000,-0.03635544,-0.07420771665427572
2025-01-08 09:46:05.197612032,0.02879626,-0.07624597191105842
2025-01-08 09:46:05.207891968,0.07599294,-0.07821933786211338
2025-01-08 09:46:05.218420992,0.08991098,-0.08012588601279552
2025-01-08 09:46:05.227858176,0.06260353,-0.08196375113231105
2025-01-08 09:46:05.237693952,0.00696397,-0.0837311330063792
2025-01-08 09:46:05.247651072,-0.06540698,-0.08542629813010288
2025-01-08 09:46:05.258494976,-0.15518576,-0.0870475813394661
2025-01-08 09:46:05.276407040,-0.22789747,-0.08859338737992879
2025-01-08 09:46:05.277652992,-0.23272419,-0.0900621924106465
2025-01-08 09:46:05.287704832,-0.18636513,-0.09145254544290606
2025-01-08 09:46:05.297586944,-0.10794944,-0.09276306971142022
2025-01-08 09:46:05.307606016,-0.0119074,-0.09399246397719159
2025-01-08 09:46:05.320235008,0.05266857,-0.0951395037607147
2025-01-08 09:46:05.327572224,0.06892908,-0.0962030425043524
2025-01-08 09:46:05.337640960,0.04916579,-0.09718201266278038
2025-01-08 09:46:05.347559936,0.0114032,-0.09807542672046893
2025-01-08 09:46:05.357620992,-0.05902588,-0.09888237813522617
2025-01-08 09:46:05.368614912,-0.14732307,-0.09960204220690747
2025-01-08 09:46:05.377628160,-0.22606045,-0.10023367687045029
2025-01-08 09:46:05.387633152,-0.26640874,-0.10077662341247354
2025-01-08 09:46:05.397857024,-0.27608067,-0.10123030711074646
2025-01-08 09:46:05.408076032,-0.23981422,-0.10159423779590049
2025-01-08 09:46:05.420284928,-0.1924426,-0.10186801033483323
2025-01-08 09:46:05.427938816,-0.17946315,-0.10205130503532078
2025-01-08 09:46:05.437728000,-0.17339385,-0.10214388797143166
2025-01-08 09:46:05.447796224,-0.18643343,-0.1021456112294022
2025-01-08 09:46:05.457676800,-0.25114512,-0.10205641307371353
2025-01-08 09:46:05.468929024,-0.32052553,-0.1018763180331761
2025-01-08 09:46:05.477689088,-0.37462419,-0.10160543690690663
2025-01-08 09:46:05.487624960,-0.44418639,-0.10124396669015369
2025-01-08 09:46:05.497833984,-0.47481865,-0.10079219042000191
2025-01-08 09:46:05.507760896,-0.45366138,-0.10025047694105758
2025-01-08 09:46:05.519512064,-0.44245452,-0.0996192805912969
2025-01-08 09:46:05.527719936,-0.41667283,-0.09889914080832189
2025-01-08 09:46:05.538027008,-0.39504445,-0.09809068165635546
2025-01-08 09:46:05.547936000,-0.38007724,-0.09719461127436668
2025-01-08 09:46:05.557818880,-0.38911259,-0.09621172124580168
2025-01-08 09:46:05.569164032,-0.39774877,-0.09514288589045854
2025-01-08 09:46:05.578118144,-0.41566104,-0.09398906147912506
2025-01-08 09:46:05.587934976,-0.45096457,-0.09275128537166093
2025-01-08 09:46:05.598018816,-0.46603101,-0.09143067507928566
2025-01-08 09:46:05.607912960,-0.47979629,-0.0900284272518948
2025-01-08 09:46:05.622190848,-0.49713624,-0.0885458165913053
2025-01-08 09:46:05.628089856,-0.50960779,-0.08698419469139052
2025-01-08 09:46:05.637882112,-0.51772189,-0.08534498880614258
2025-01-08 09:46:05.647741952,-0.51764917,-0.08362970054675753
2025-01-08 09:46:05.657782016,-0.48304713,-0.0818399045089131
2025-01-08 09:46:05.667785984,-0.43231601,-0.0799772468314659
2025-01-08 09:46:05.677836800,-0.38964581,-0.07804344368786673
2025-01-08 09:46:05.687834880,-0.35345674,-0.07604027971164674
2025-01-08 09:46:05.698018048,-0.33199811,-0.0739696063573989
2025-01-08 09:46:05.707834880,-0.31566012,-0.07183334019872648
2025-01-08 09:46:05.719398144,-0.29240042,-0.06963346116470419
2025-01-08 09:46:05.727904000,-0.2866239,-0.06737201071644111
2025-01-08 09:46:05.737870080,-0.27595258,-0.06505108996540082
2025-01-08 09:46:05.748020992,-0.2567957,-0.06267285773518275
2025-01-08 09:46:05.757915904,-0.26150972,-0.06023952856852485
2025-01-08 09:46:05.770087936,-0.26070029,-0.05775337068133866
2025-01-08 09:46:05.777984000,-0.23373616,-0.05521670386563634
2025-01-08 09:46:05.788227072,-0.21907085,-0.05263189734325862
2025-01-08 09:46:05.797875968,-0.2005139,-0.05000136757236075
2025-01-08 09:46:05.807916032,-0.17227876,-0.04732757600865364
2025-01-08 09:46:05.817900032,-0.15741658,-0.044613026823445395
2025-01-08 09:46:05.828488960,-0.15179431,-0.04186026458056625
2025-01-08 09:46:05.843170048,-0.14708167,-0.03907187187430021
2025-01-08 09:46:05.849518080,-0.12891173,-0.03625046693048401
2025-01-08 09:46:05.864548864,-0.10906076,-0.033398701172968885
2025-01-08 09:46:05.868244992,-0.09144396,-0.030519256757675042
2025-01-08 09:46:05.877929984,-0.08028203,-0.02761484407649741
2025-01-08 09:46:05.888044032,-0.07355595,-0.024688199233354552
2025-01-08 09:46:05.898024960,-0.07488668,-0.02174208149469596
2025-01-08 09:46:05.907994880,-0.08635151,-0.0187792707168094
2025-01-08 09:46:05.918095104,-0.0925222,-0.015802564752294693
2025-01-08 09:46:05.928256000,-0.08643848,-0.012814776838087162
2025-01-08 09:46:05.938287872,-0.08592421,-0.00981873296743629
2025-01-08 09:46:05.948076032,-0.06939304,-0.0068172692482603705
2025-01-08 09:46:05.958158080,-0.05286163,-0.0038132292503100245
2025-01-08 09:46:05.968158976,-0.05336243,-0.0008094613435887568
2025-01-08 09:46:05.978149888,-0.05018067,0.002191183969513414
2025-01-08 09:46:05.988043008,-0.0460816,0.0051858567259098105
2025-01-08 09:46:05.998014976,-0.06109029,0.008171710174861659
2025-01-08 09:46:06.008121856,-0.07675809,0.01114590344990439
2025-01-08 09:46:06.018224128,-0.07606727,0.014105604237183685
2025-01-08 09:46:06.028069888,-0.08401138,0.01704799143773109
2025-01-08 09:46:06.038262016,-0.07420599,0.019970257821209186
2025-01-08 09:46:06.048065792,-0.05066746,0.022869612668668785
2025-01-08 09:46:06.058106880,-0.04196644,0.025743284401862066
2025-01-08 09:46:06.068295936,-0.04475951,0.028588523196672388
2025-01-08 09:46:06.078236160,-0.03590357,0.03140260357822925
2025-01-08 09:46:06.088215040,-0.04260135,0.03418282699529565
2025-01-08 09:46:06.098084864,-0.03342062,0.036926524371530295
2025-01-08 09:46:06.108246016,-0.0021053,0.039631058631248266
2025-01-08 09:46:06.117990144,0.02083838,0.042293827197323816
2025-01-08 09:46:06.128197888,0.037884,0.04491226445890412
2025-01-08 09:46:06.138063872,0.06656355,0.04748384420662886
2025-01-08 09:46:06.148176896,0.09510022,0.05000608203307763
2025-01-08 09:46:06.159022080,0.11459315,0.05247653769619897
2025-01-08 09:46:06.168118016,0.11883217,0.054892817443506124
2025-01-08 09:46:06.178230016,0.12700415,0.05725257629485998
2025-01-08 09:46:06.188350976,0.12566268,0.05955352028169467
2025-01-08 09:46:06.198245888,0.12104887,0.06179340864058187
2025-01-08 09:46:06.208386048,0.12716091,0.06397005595906925
2025-01-08 09:46:06.218163968,0.14073175,0.06608133427176928
2025-01-08 09:46:06.228203008,0.14125955,0.06812517510472257
2025-01-08 09:46:06.238269952,0.16235548,0.07009957146610256
2025-01-08 09:46:06.248371968,0.20433646,0.07200257978137747
2025-01-08 09:46:06.258269184,0.23842853,0.07383232177109687
2025-01-08 09:46:06.268300032,0.26037139,0.07558698626951794
2025-01-08 09:46:06.278377984,0.28184265,0.07726483098234294
2025-01-08 09:46:06.288203008,0.28827935,0.07886418418189318
2025-01-08 09:46:06.298317056,0.254511,0.08038344633809853
2025-01-08 09:46:06.308523776,0.24358761,0.08182109168374528
2025-01-08 09:46:06.318422016,0.24104267,0.08317566971247582
2025-01-08 09:46:06.328460032,0.24176645,0.08444580660810441
2025-01-08 09:46:06.338349056,0.2458055,0.08563020660386572
2025-01-08 09:46:06.348453120,0.26352894,0.08672765327028305
2025-01-08 09:46:06.358445056,0.28720212,0.08773701073040537
2025-01-08 09:46:06.368448000,0.29883176,0.08865722480122645
2025-01-08 09:46:06.378486016,0.30835754,0.08948732406017099
2025-01-08 09:46:06.388484864,0.31113315,0.09022642083559407
2025-01-08 09:46:06.398436096,0.30072314,0.09087371212031715
2025-01-08 09:46:06.408343040,0.28996336,0.09142848040728618
2025-01-08 09:46:06.418361856,0.27304077,0.0918900944465148
2025-01-08 09:46:06.428495872,0.25473362,0.09225800992254198
2025-01-08 09:46:06.438375936,0.24902743,0.0925317700517112
2025-01-08 09:46:06.448620032,0.24606019,0.09271100609864602
2025-01-08 09:46:06.458498048,0.21410334,0.09279543781137631
2025-01-08 09:46:06.468614144,0.18303537,0.09278487377463777
2025-01-08 09:46:06.478526976,0.15891719,0.09267921168094861
2025-01-08 09:46:06.488526080,0.15411502,0.09247843851913824
2025-01-08 09:46:06.498626048,0.1658017,0.09218263068007873
2025-01-08 09:46:06.508665088,0.16963315,0.09179195397944843
2025-01-08 09:46:06.518575872,0.15958041,0.09130666359743142
2025-01-08 09:46:06.528582144,0.12915093,0.09072710393533205
2025-01-08 09:46:06.538372096,0.08319575,0.09005370838916267
2025-01-08 09:46:06.548530944,0.03846782,0.08928699904033671
2025-01-08 09:46:06.558394880,-0.01053524,0.08842758626367782
2025-01-08 09:46:06.568505088,-0.05081397,0.08747616825302974
2025-01-08 09:46:06.578756096,-0.0720458,0.08643353046482953
2025-01-08 09:46:06.588665856,-0.07584679,0.08530054498008202
2025-01-08 09:46:06.598607104,-0.07393014,0.08407816978524785
2025-01-08 09:46:06.608491008,-0.05407441,0.08276744797263393
2025-01-08 09:46:06.618618880,-0.0289225,0.08136950686095001
2025-01-08 09:46:06.628496896,0.00016379,0.07988555703676525
2025-01-08 09:46:06.638708992,0.03224689,0.07831689131767891
2025-01-08 09:46:06.648503040,0.06131804,0.07666488363808484
2025-01-08 09:46:06.658498048,0.0888021,0.07493098785848759
2025-01-08 09:46:06.668673024,0.12211305,0.07311673649939263
2025-01-08 09:46:06.678543104,0.16541135,0.0712237394008719
2025-01-08 09:46:06.688694016,0.20779026,0.06925368230896578
2025-01-08 09:46:06.698606848,0.22884178,0.06720832539015943
2025-01-08 09:46:06.708865792,0.23215604,0.06508950167523248
2025-01-08 09:46:06.718523904,0.22882366,0.06289911543385052
2025-01-08 09:46:06.728576000,0.22283757,0.060639140481331615
2025-01-08 09:46:06.738625024,0.22601485,0.058311618419082036
2025-01-08 09:46:06.748722944,0.24059552,0.055918656810263576
2025-01-08 09:46:06.758508800,0.26309389,0.053462427292306505
2025-01-08 09:46:06.768759040,0.27987856,0.050945163627953496
2025-01-08 09:46:06.784174080,0.29578376,0.04836915969656725
2025-01-08 09:46:06.795342848,0.31657952,0.04573676742749706
2025-01-08 09:46:06.799567104,0.32092178,0.043050394677355025
2025-01-08 09:46:06.825166848,0.30449468,0.04031250305310034
2025-01-08 09:46:06.825186048,0.28985316,0.03752560568288867
2025-01-08 09:46:06.828654080,0.27941686,0.03469226493668897
2025-01-08 09:46:06.838960896,0.29421794,0.03181509009871854
2025-01-08 09:46:06.848721152,0.33249414,0.02889673499379643
2025-01-08 09:46:06.859142144,0.37484419,0.02593989556975567
2025-01-08 09:46:06.868827136,0.40868211,0.022947307438099803
2025-01-08 09:46:06.878668032,0.43030888,0.019921743375129065
2025-01-08 09:46:06.889163008,0.42822808,0.016866010785800262
2025-01-08 09:46:06.898846976,0.37871563,0.01378294913261998
2025-01-08 09:46:06.908907008,0.31240636,0.010675427331905655
2025-01-08 09:46:06.918839040,0.25108582,0.00754634111978297
2025-01-08 09:46:06.928782080,0.20655632,0.0043986103903138314
2025-01-08 09:46:06.938784000,0.1857515,0.001235176508183065
2025-01-08 09:46:06.948740096,0.17660373,-0.0019410004016079856
2025-01-08 09:46:06.958909952,0.16245842,-0.005126944184565251
2025-01-08 09:46:06.968803840,0.12740213,-0.008319665405546985
2025-01-08 09:46:06.978863104,0.08580554,-0.011516164113117053
2025-01-08 09:46:06.989430016,0.03474563,-0.014713432616873823
2025-01-08 09:46:06.999072000,-0.02264756,-0.01790845827520788
2025-01-08 09:46:07.009284096,-0.07750314,-0.021098226290932498
2025-01-08 09:46:07.018817792,-0.09448504,-0.024279722512217855
2025-01-08 09:46:07.028961792,-0.07119888,-0.027449936236252147
2025-01-08 09:46:07.038913024,-0.03154773,-0.03060586301305169
2025-01-08 09:46:07.048801792,0.02572584,-0.03374450744683573
2025-01-08 09:46:07.058896896,0.09007853,-0.036862885992379704
2025-01-08 09:46:07.068940032,0.11950868,-0.03995802974377055
2025-01-08 09:46:07.078991872,0.08822483,-0.04302698721297924
2025-01-08 09:46:07.089222912,0.01669616,-0.04606682709568788
2025-01-08 09:46:07.099045888,-0.05464667,-0.049074641021802
2025-01-08 09:46:07.108943872,-0.12145549,-0.05204754628810316
2025-01-08 09:46:07.119002112,-0.13827842,-0.054982688570501995
2025-01-08 09:46:07.129102080,-0.12985182,-0.05787724461337233
2025-01-08 09:46:07.151936000,-0.09263444,-0.06072842489346372
2025-01-08 09:46:07.151954944,-0.04971856,-0.06353347625591062
2025-01-08 09:46:07.159080960,-0.00818658,-0.06628968451988086
2025-01-08 09:46:07.168976128,0.0165512,-0.0689943770514276
2025-01-08 09:46:07.179128832,-0.01119077,-0.07164492530114103
2025-01-08 09:46:07.189431040,-0.05660474,-0.07423874730422386
2025-01-08 09:46:07.199219968,-0.11952561,-0.07677331014064258
2025-01-08 09:46:07.209451008,-0.17470676,-0.07924613235305071
2025-01-08 09:46:07.218941952,-0.20253468,-0.0816547863202037
2025-01-08 09:46:07.229079040,-0.21470654,-0.08399690058363489
2025-01-08 09:46:07.239087104,-0.19895655,-0.08627016212539322
2025-01-08 09:46:07.249136896,-0.15021688,-0.08847231859469415
2025-01-08 09:46:07.259308032,-0.10273212,-0.09060118048137232
2025-01-08 09:46:07.269112064,-0.0688073,-0.09265462323407617
2025-01-08 09:46:07.279053824,-0.05741459,-0.09463058932119031
2025-01-08 09:46:07.289067008,-0.07385927,-0.09652709023252314
2025-01-08 09:46:07.299219968,-0.10879117,-0.09834220841984906
2025-01-08 09:46:07.309324032,-0.14904052,-0.10007409917444668
2025-01-08 09:46:07.319233024,-0.16919643,-0.10172099243983465
2025-01-08 09:46:07.329624832,-0.2038309,-0.10328119455795806
2025-01-08 09:46:07.339318016,-0.23194957,-0.10475308994714322
2025-01-08 09:46:07.349428992,-0.23867875,-0.10613514271019446
2025-01-08 09:46:07.359867136,-0.22861719,-0.10742589817107241
2025-01-08 09:46:07.369241856,-0.24669886,-0.10862398433865492
2025-01-08 09:46:07.379108864,-0.26568568,-0.10972811329614605
2025-01-08 09:46:07.390065920,-0.27632624,-0.11073708251476916
2025-01-08 09:46:07.399116032,-0.3308931,-0.11164977609044165
2025-01-08 09:46:07.409086976,-0.38126779,-0.11246516590220425
2025-01-08 09:46:07.419022080,-0.41281343,-0.11318231269124343
2025-01-08 09:46:07.429208064,-0.42310101,-0.11380036705941908
2025-01-08 09:46:07.439132928,-0.42446452,-0.11431857038628139
2025-01-08 09:46:07.449081856,-0.40786153,-0.11473625566363459
2025-01-08 09:46:07.459171072,-0.39226681,-0.11505284824678039
2025-01-08 09:46:07.469404928,-0.38464534,-0.11526786652164522
2025-01-08 09:46:07.479245056,-0.3961516,-0.11538092248707861
2025-01-08 09:46:07.490473984,-0.41209006,-0.1153917222516799
2025-01-08 09:46:07.499196928,-0.41955554,-0.11530006644459112
2025-01-08 09:46:07.509218048,-0.43655556,-0.1151058505397723
2025-01-08 09:46:07.519334912,-0.45615375,-0.11480906509335347
2025-01-08 09:46:07.529298944,-0.49625564,-0.11440979589373448
2025-01-08 09:46:07.539428096,-0.50013822,-0.11390822402418835
2025-01-08 09:46:07.549420032,-0.48538035,-0.1133046258377969
2025-01-08 09:46:07.559556096,-0.47164834,-0.11259937284463419
2025-01-08 09:46:07.569530112,-0.43391865,-0.1117929315111871
2025-01-08 09:46:07.579467008,-0.37751138,-0.11088586297208815
2025-01-08 09:46:07.589481984,-0.31873065,-0.10987882265431113
2025-01-08 09:46:07.599374080,-0.27747256,-0.10877255981406456
2025-01-08 09:46:07.609420032,-0.26788878,-0.1075679169866941
2025-01-08 09:46:07.619335936,-0.27550024,-0.10626582934998884
2025-01-08 09:46:07.629518080,-0.27008379,-0.10486732400136126
2025-01-08 09:46:07.640487936,-0.26681423,-0.1033735191494558
2025-01-08 09:46:07.649456896,-0.24368119,-0.10178562322081397
2025-01-08 09:46:07.659416064,-0.21335047,-0.10010493388230607
2025-01-08 09:46:07.669383168,-0.1984002,-0.09833283698011633
2025-01-08 09:46:07.679503872,-0.18517643,-0.09647080539614454
2025-01-08 09:46:07.689266944,-0.17716455,-0.09452039782276543
2025-01-08 09:46:07.699492864,-0.17496413,-0.0924832574569605
2025-01-08 09:46:07.713797120,-0.1584214,-0.09036111061491493
2025-01-08 09:46:07.720415232,-0.12275016,-0.08815576526824187
2025-01-08 09:46:07.729358848,-0.08516073,-0.08586910950307419
2025-01-08 09:46:07.739363840,-0.04617912,-0.08350310990333157
2025-01-08 09:46:07.749517824,-0.03050011,-0.08105980985954328
2025-01-08 09:46:07.759490048,-0.03790307,-0.07854132780467839
2025-01-08 09:46:07.769393920,-0.02915353,-0.07594985537849931
2025-01-08 09:46:07.779526912,-0.02606857,-0.07328765552202578
2025-01-08 09:46:07.789520896,-0.0267356,-0.07055706050375911
2025-01-08 09:46:07.805360128,-0.05206156,-0.06776046987938339
2025-01-08 09:46:07.814491136,-0.09066737,-0.06490034838671999
2025-01-08 09:46:07.819462912,-0.14036423,-0.061979223777776246
2025-01-08 09:46:07.829619968,-0.16191846,-0.05899968458978658
2025-01-08 09:46:07.839493888,-0.1554814,-0.055964377857202645
2025-01-08 09:46:07.849474816,-0.11938,-0.05287600676664586
2025-01-08 09:46:07.859363072,-0.08867216,-0.04973732825689076
2025-01-08 09:46:07.869468928,-0.0927375,-0.04655115056599728
2025-01-08 09:46:07.879481088,-0.10195947,-0.043320330727766025
2025-01-08 09:46:07.889556992,-0.12511849,-0.04004777201973304
2025-01-08 09:46:07.899624192,-0.13752139,-0.03673642136497424
2025-01-08 09:46:07.909656064,-0.14009863,-0.03338926669002841
2025-01-08 09:46:07.919657984,-0.13565993,-0.030009334241295267
2025-01-08 09:46:07.929657856,-0.12524664,-0.026599685862303147
2025-01-08 09:46:07.939740928,-0.10955364,-0.023163416234279574
2025-01-08 09:46:07.949810944,-0.09418398,-0.019703650082497047
2025-01-08 09:46:07.959580928,-0.09301507,-0.016223539350896352
2025-01-08 09:46:07.969608960,-0.08988488,-0.012726260347526474
2025-01-08 09:46:07.979614976,-0.07650775,-0.009215010863365123
2025-01-08 09:46:07.989732096,-0.06514901,-0.00569300726711572
2025-01-08 09:46:07.999712000,-0.05859941,-0.0021634815785992793
2025-01-08 09:46:08.009550080,-0.05169231,0.001370321476617801
2025-01-08 09:46:08.019772928,-0.04494363,0.004905147428696852
2025-01-08 09:46:08.029509120,-0.03461736,0.008437735038420739
2025-01-08 09:46:08.039650048,-0.01729941,0.011964819282813812
2025-01-08 09:46:08.049701888,0.00454068,0.01548313434877674
2025-01-08 09:46:08.059525888,0.02009088,0.018989416632019307
2025-01-08 09:46:08.069719040,0.04260975,0.022480407738560346
2025-01-08 09:46:08.079694080,0.07396072,0.025952857486064105
2025-01-08 09:46:08.089760000,0.09767419,0.029403526902272197
2025-01-08 09:46:08.099576064,0.10743201,0.03282919121779701
2025-01-08 09:46:08.109737984,0.1216073,0.03622664285053793
2025-01-08 09:46:08.119652864,0.12945342,0.039592694378987874
2025-01-08 09:46:08.129761024,0.13599342,0.04292418150170776
2025-01-08 09:46:08.139821056,0.13737249,0.046217965980246675
2025-01-08 09:46:08.149750016,0.1355812,0.049470938562809826
2025-01-08 09:46:08.159784192,0.1324634,0.05268002188597683
2025-01-08 09:46:08.169661952,0.11476684,0.05584217335180078
2025-01-08 09:46:08.179673856,0.10454327,0.05895438797762972
2025-01-08 09:46:08.189811968,0.10596657,0.06201370121601749
2025-01-08 09:46:08.199767040,0.1208595,0.06501719174211355
2025-01-08 09:46:08.209958144,0.15674752,0.06796198420594782
2025-01-08 09:46:08.219922944,0.20388806,0.07084525194705306
2025-01-08 09:46:08.229810944,0.25316733,0.07366421966890375
2025-01-08 09:46:08.240087040,0.28559762,0.07641616607067597
2025-01-08 09:46:08.249964032,0.29971725,0.0790984264338748
2025-01-08 09:46:08.259964928,0.31164104,0.08170839516140899
2025-01-08 09:46:08.269901056,0.32719213,0.08424352826673825
2025-01-08 09:46:08.279692032,0.34093124,0.08670134581075209
2025-01-08 09:46:08.289803008,0.3481192,0.08907943428409287
2025-01-08 09:46:08.299787008,0.32324398,0.09137544893267584
2025-01-08 09:46:08.309912832,0.29576445,0.09358711602421015
2025-01-08 09:46:08.319816192,0.28918254,0.09571223505357547
2025-01-08 09:46:08.329952000,0.28198582,0.0977486808849598
2025-01-08 09:46:08.340060928,0.26618248,0.09969440582872108
2025-01-08 09:46:08.349925120,0.25023091,0.1015474416509903
2025-01-08 09:46:08.359873024,0.23144019,0.10330590151409197
2025-01-08 09:46:08.370529024,0.21983159,0.1049679818459186
2025-01-08 09:46:08.380547072,0.22160381,0.10653196413645848
2025-01-08 09:46:08.389858048,0.23735178,0.1079962166597369
2025-01-08 09:46:08.399912960,0.24833542,0.10935919611950165
2025-01-08 09:46:08.410031104,0.24388784,0.1106194492170433
2025-01-08 09:46:08.419884032,0.23423231,0.11177561413961543
2025-01-08 09:46:08.429864960,0.22115016,0.11282642196798744
2025-01-08 09:46:08.439834112,0.20825255,0.11377069800173238
2025-01-08 09:46:08.450624000,0.17647809,0.1146073630009286
2025-01-08 09:46:08.460012032,0.13670915,0.11533543434302433
2025-01-08 09:46:08.470276096,0.102431,0.11595402709369079
2025-01-08 09:46:08.480012032,0.09578937,0.11646235499056805
2025-01-08 09:46:08.490227968,0.09674507,0.11685973133888013
2025-01-08 09:46:08.499958016,0.07512569,0.11714556981798024
2025-01-08 09:46:08.510098944,0.04600155,0.11731938519796106
2025-01-08 09:46:08.520081920,0.01049763,0.1173807939655492
2025-01-08 09:46:08.529923072,-0.03302294,0.11732951485858237
2025-01-08 09:46:08.540115968,-0.0675478,0.11716536930844829
2025-01-08 09:46:08.550075136,-0.07555854,0.11688828178994962
2025-01-08 09:46:08.560044032,-0.05524969,0.11649828007814125
2025-01-08 09:46:08.569978880,-0.0271678,0.1159954954117664
2025-01-08 09:46:08.580086016,0.01341569,0.11538016256300933
2025-01-08 09:46:08.589946112,0.05223328,0.11465261981335749
2025-01-08 09:46:08.600101120,0.0827741,0.11381330883546101
2025-01-08 09:46:08.610202112,0.12415159,0.11286277448095051
2025-01-08 09:46:08.620040960,0.17012811,0.11180166447427119
2025-01-08 09:46:08.630161920,0.20091814,0.11063072901266588
2025-01-08 09:46:08.640032000,0.21206373,0.10935082027253287
2025-01-08 09:46:08.649982976,0.21056086,0.10796289182246155
2025-01-08 09:46:08.660151040,0.19678968,0.10646799794334266
2025-01-08 09:46:08.670025984,0.18776935,0.10486729285602404
2025-01-08 09:46:08.679916032,0.20112157,0.10316202985707695
2025-01-08 09:46:08.690080000,0.2335003,0.10135356036331457
2025-01-08 09:46:08.700151040,0.26176298,0.09944333286579041
2025-01-08 09:46:08.710084864,0.3093878,0.09743289179408793
2025-01-08 09:46:08.719930880,0.34833825,0.09532387629179247
2025-01-08 09:46:08.730081024,0.36120385,0.09311801890411964
2025-01-08 09:46:08.739998208,0.35312116,0.09081714417875533
2025-01-08 09:46:08.750034944,0.3451466,0.08842316718103885
2025-01-08 09:46:08.760303872,0.32658577,0.08593809192470575
2025-01-08 09:46:08.770349056,0.29248393,0.08336400971947722
2025-01-08 09:46:08.780101888,0.28719461,0.08070309743686707
2025-01-08 09:46:08.790277120,0.31052107,0.07795761569564634
2025-01-08 09:46:08.800119040,0.34177721,0.07512990696848565
2025-01-08 09:46:08.810301952,0.36849999,0.0722223936113636
2025-01-08 09:46:08.820110080,0.39153278,0.06923757581740647
2025-01-08 09:46:08.830265088,0.39619792,0.06617802949688928
2025-01-08 09:46:08.840180992,0.38919973,0.06304640408520251
2025-01-08 09:46:08.850145024,0.36237007,0.05984542028065129
2025-01-08 09:46:08.860276992,0.3123349,0.056577867714025364
2025-01-08 09:46:08.870286848,0.26469672,0.05324660255193424
2025-01-08 09:46:08.880215808,0.23890156,0.04985454503597493
2025-01-08 09:46:08.890326016,0.24711275,0.04640467695984839
2025-01-08 09:46:08.900226048,0.26400352,0.0429000390866111
2025-01-08 09:46:08.910315008,0.30123115,0.03934372850829458
2025-01-08 09:46:08.920325120,0.32053173,0.035738895950191085
2025-01-08 09:46:08.930355968,0.31356126,0.032088743022145344
2025-01-08 09:46:08.940273920,0.26678622,0.028396519419254536
2025-01-08 09:46:08.950365952,0.17473745,0.02466552007441786
2025-01-08 09:46:08.960354048,0.04661721,0.020899082265231336
2025-01-08 09:46:08.970236928,-0.07177609,0.01710058267776048
2025-01-08 09:46:08.980380160,-0.14358747,0.013273434429774375
2025-01-08 09:46:08.990392832,-0.13671255,0.009421084056057258
2025-01-08 09:46:09.000348928,-0.06762505,0.005547008458454598
2025-01-08 09:46:09.010371072,0.03347206,0.0016547118233463563
2025-01-08 09:46:09.020235008,0.14108342,-0.0022522774907272475
2025-01-08 09:46:09.030633984,0.21277183,-0.006170410092532415
2025-01-08 09:46:09.040343040,0.21250176,-0.010096118721917763
2025-01-08 09:46:09.050509056,0.13299781,-0.014025821435088301
2025-01-08 09:46:09.060301056,-0.00079417,-0.017955924808546176
2025-01-08 09:46:09.070473984,-0.12863213,-0.021882827158845604
2025-01-08 09:46:09.080562944,-0.21046889,-0.02580292177528763
2025-01-08 09:46:09.090449152,-0.2417559,-0.02971260016267167
2025-01-08 09:46:09.100924928,-0.24019307,-0.03360825529120071
2025-01-08 09:46:09.110637824,-0.21306312,-0.03748628485063063
2025-01-08 09:46:09.120635904,-0.18090725,-0.041343094505747
2025-01-08 09:46:09.130592000,-0.16535789,-0.04517510115024284
2025-01-08 09:46:09.140734976,-0.16589665,-0.048978736156075744
2025-01-08 09:46:09.150391040,-0.17675751,-0.05275044861537298
2025-01-08 09:46:09.160325120,-0.19056231,-0.05648670857196662
2025-01-08 09:46:09.170316032,-0.19347835,-0.06018401023963706
2025-01-08 09:46:09.181839872,-0.20163924,-0.0638388752041566
2025-01-08 09:46:09.190530048,-0.2194137,-0.0674478556062329
2025-01-08 09:46:09.201022976,-0.21659833,-0.07100753730246703
2025-01-08 09:46:09.210477056,-0.20812684,-0.07451454300145328
2025-01-08 09:46:09.220557824,-0.19504201,-0.07796553537217159
2025-01-08 09:46:09.230420224,-0.18624091,-0.08135722012183845
2025-01-08 09:46:09.240647168,-0.19992477,-0.08468634904041077
2025-01-08 09:46:09.250438912,-0.23669523,-0.08794972300895887
2025-01-08 09:46:09.260613888,-0.28183585,-0.09114419496915739
2025-01-08 09:46:09.270605056,-0.3007108,-0.09426667285117107
2025-01-08 09:46:09.280709120,-0.327034,-0.09731412245724655
2025-01-08 09:46:09.290468864,-0.33983415,-0.1002835702983587
2025-01-08 09:46:09.300674816,-0.32615268,-0.10317210638129652
2025-01-08 09:46:09.311343872,-0.33867031,-0.10597688694361529
2025-01-08 09:46:09.320521984,-0.37032217,-0.10869513713392698
2025-01-08 09:46:09.330530048,-0.37693316,-0.11132415363504011
2025-01-08 09:46:09.340706048,-0.39281303,-0.113861307227517
2025-01-08 09:46:09.350514944,-0.44381201,-0.11630404529125868
2025-01-08 09:46:09.360646912,-0.46632487,-0.11864989424278302
2025-01-08 09:46:09.371277056,-0.4629401,-0.1208964619059179
2025-01-08 09:46:09.380819200,-0.46286553,-0.12304143981368303
2025-01-08 09:46:09.390786048,-0.45666331,-0.12508260543919816
2025-01-08 09:46:09.400696064,-0.46550643,-0.1270178243535103
2025-01-08 09:46:09.410567168,-0.47911072,-0.1288450523082993
2025-01-08 09:46:09.420742912,-0.50200862,-0.13056233724148533
2025-01-08 09:46:09.430732032,-0.51226199,-0.13216782120382345
2025-01-08 09:46:09.440780032,-0.51256388,-0.13365974220464635
2025-01-08 09:46:09.450732032,-0.50897121,-0.13503643597497797
2025-01-08 09:46:09.460738816,-0.48142415,-0.13629633764631735
2025-01-08 09:46:09.470757888,-0.44928914,-0.13743798334346535
2025-01-08 09:46:09.480601088,-0.43070865,-0.13846001168983718
2025-01-08 09:46:09.490616064,-0.43195337,-0.13936116522378345
2025-01-08 09:46:09.500814080,-0.4268434,-0.1401402917245206
2025-01-08 09:46:09.510622976,-0.40963227,-0.14079634544634714
2025-01-08 09:46:09.520634880,-0.36786503,-0.14132838825990385
2025-01-08 09:46:09.530792960,-0.29529023,-0.1417355906993188
2025-01-08 09:46:09.540705792,-0.26320308,-0.14201723291415957
2025-01-08 09:46:09.550848000,-0.24391633,-0.1421727055251962
2025-01-08 09:46:09.560642048,-0.22420382,-0.14220151038306864
2025-01-08 09:46:09.570811904,-0.19761539,-0.14210326122903036
2025-01-08 09:46:09.580861184,-0.16821635,-0.14187768425703481
2025-01-08 09:46:09.590728960,-0.13960105,-0.14152461857650925
2025-01-08 09:46:09.600907008,-0.11481661,-0.14104401657525706
2025-01-08 09:46:09.610915840,-0.11320043,-0.1404359441820111
2025-01-08 09:46:09.620770048,-0.12923908,-0.13970058102825308
2025-01-08 09:46:09.630763008,-0.13512105,-0.13883822050900307
2025-01-08 09:46:09.640765952,-0.12482619,-0.13784926974237263
2025-01-08 09:46:09.650876928,-0.10313904,-0.13673424942776322
2025-01-08 09:46:09.660867072,-0.07966429,-0.13549379360268624
2025-01-08 09:46:09.670959872,-0.05572873,-0.13412864929826612
2025-01-08 09:46:09.680907008,-0.03997993,-0.13263967609358296
2025-01-08 09:46:09.690959104,-0.04603827,-0.13102784556909813
2025-01-08 09:46:09.700911104,-0.06447119,-0.12929424065949877
2025-01-08 09:46:09.710951936,-0.10160828,-0.12744005490638616
2025-01-08 09:46:09.720987136,-0.10151756,-0.12546659161132415
2025-01-08 09:46:09.730950144,-0.07511181,-0.12337526288984979
2025-01-08 09:46:09.740942848,-0.06766832,-0.12116758862714297
2025-01-08 09:46:09.750921984,-0.06403416,-0.11884519533613483
2025-01-08 09:46:09.760987904,-0.06591392,-0.11640981491892691
2025-01-08 09:46:09.770971904,-0.08187181,-0.11386328333247724
2025-01-08 09:46:09.780977920,-0.09769106,-0.11120753915959831
2025-01-08 09:46:09.791042048,-0.12163019,-0.10844462208639634
2025-01-08 09:46:09.801042176,-0.1250686,-0.10557667128736699
2025-01-08 09:46:09.811181056,-0.11931497,-0.10260592371944469
2025-01-08 09:46:09.821295872,-0.11001396,-0.09953471232638876
2025-01-08 09:46:09.831366912,-0.08107197,-0.09636546415496798
2025-01-08 09:46:09.841125888,-0.05249506,-0.09310069838448645
2025-01-08 09:46:09.850894848,-0.02918875,-0.08974302427127517
2025-01-08 09:46:09.860833024,-0.03223759,-0.0862951390098486
2025-01-08 09:46:09.870887168,-0.03555071,-0.08275982551250152
2025-01-08 09:46:09.880829184,-0.03687787,-0.07913995010920193
2025-01-08 09:46:09.891067136,-0.0325284,-0.07543846016970042
2025-01-08 09:46:09.900957184,-0.02249312,-0.07165838164985622
2025-01-08 09:46:09.911083008,0.00466168,-0.06780281656424479
2025-01-08 09:46:09.921051904,0.01485932,-0.06387494038718357
2025-01-08 09:46:09.930993920,0.01785713,-0.059877999384376476
2025-01-08 09:46:09.941031936,0.02234995,-0.05581530787744334
2025-01-08 09:46:09.951127040,0.03376859,-0.051690245443663796
2025-01-08 09:46:09.961016832,0.04273224,-0.04750625405332522
2025-01-08 09:46:09.971250176,0.05736047,-0.04326683514712177
2025-01-08 09:46:09.981236992,0.09167433,-0.03897554665611017
2025-01-08 09:46:09.991247872,0.12698448,-0.0346359999667803
2025-01-08 09:46:10.001234944,0.16312981,-0.030251856833853934
2025-01-08 09:46:10.011301888,0.18614608,-0.02582682624346809
2025-01-08 09:46:10.021264128,0.2029562,-0.021364661229456895
2025-01-08 09:46:10.031298048,0.20462376,-0.01686915564548125
2025-01-08 09:46:10.041636864,0.21179289,-0.01234414089580559
2025-01-08 09:46:10.051172864,0.20868391,-0.007793482627557366
2025-01-08 09:46:10.060978944,0.20321417,-0.003221077387343793
2025-01-08 09:46:10.071134976,0.20208776,0.0013691507548621211
2025-01-08 09:46:10.081178880,0.20430964,0.005973253611626268
2025-01-08 09:46:10.091053056,0.21431017,0.010587262310771773
2025-01-08 09:46:10.101191936,0.22667009,0.01520719075191395
2025-01-08 09:46:10.111223040,0.22230232,0.019829039083782
2025-01-08 09:46:10.121061120,0.2278018,0.024448797199282384
2025-01-08 09:46:10.131239936,0.24283034,0.029062448245233588
2025-01-08 09:46:10.141180160,0.25274521,0.03366597214368815
2025-01-08 09:46:10.151256064,0.2850123,0.03825534912174174
2025-01-08 09:46:10.161245952,0.32592279,0.04282656324672054
2025-01-08 09:46:10.171302144,0.33875161,0.047375605963623495
2025-01-08 09:46:10.181304832,0.34589624,0.051898479631698184
2025-01-08 09:46:10.191343104,0.34137785,0.05639120105701713
2025-01-08 09:46:10.201105152,0.33004785,0.06084980501792828
2025-01-08 09:46:10.211158016,0.29009694,0.06527034778025052
2025-01-08 09:46:10.221289984,0.23906034,0.06964891059909341
2025-01-08 09:46:10.231139072,0.22098774,0.07398160320418502
2025-01-08 09:46:10.241238016,0.19735175,0.07826456726560731
2025-01-08 09:46:10.251303936,0.17825508,0.08249397983684513
2025-01-08 09:46:10.261424896,0.16653401,0.08666605677207699
2025-01-08 09:46:10.272568832,0.16718525,0.09077705611465238
2025-01-08 09:46:10.281474048,0.18111688,0.09482328145372101
2025-01-08 09:46:10.291384832,0.20468181,0.0988010852460046
2025-01-08 09:46:10.301362944,0.23170805,0.10270687209973013
2025-01-08 09:46:10.311513856,0.25000089,0.106537102017771
2025-01-08 09:46:10.321275904,0.24241889,0.11028829359707627
2025-01-08 09:46:10.331352064,0.1947149,0.11395702718150194
2025-01-08 09:46:10.341434880,0.13994443,0.11753994796519825
2025-01-08 09:46:10.351249920,0.09206486,0.12103376904374373
2025-01-08 09:46:10.361476864,0.04470843,0.12443527441026261
2025-01-08 09:46:10.371300864,0.01328164,0.12774132189380458
2025-01-08 09:46:10.381110784,0.00044447,0.13094884603731619
2025-01-08 09:46:10.391383040,0.00065386,0.13405486091258084
2025-01-08 09:46:10.401287168,0.00316125,0.13705646286955941
2025-01-08 09:46:10.411286016,0.00428623,0.1399508332176142
2025-01-08 09:46:10.421564928,0.00362796,0.14273524083616212
2025-01-08 09:46:10.431698176,-0.01709449,0.14540704471235497
2025-01-08 09:46:10.441515008,-0.03162175,0.14796369640345378
2025-01-08 09:46:10.451288832,-0.03787464,0.15040274242161994
2025-01-08 09:46:10.461286912,-0.045371,0.1527218265389203
2025-01-08 09:46:10.471520000,-0.0418154,0.15491869201040262
2025-01-08 09:46:10.481492992,-0.02783686,0.1569911837131736
2025-01-08 09:46:10.491503104,-0.00475276,0.1589372501994804
2025-01-08 09:46:10.501477120,0.01368076,0.1607549456618714
2025-01-08 09:46:10.511526144,0.0292874,0.16244243180858575
2025-01-08 09:46:10.521476096,0.04065812,0.16399797964740057
2025-01-08 09:46:10.531360000,0.04789543,0.16541997117624088
2025-01-08 09:46:10.541417984,0.04877347,0.16670690097893867
2025-01-08 09:46:10.551798016,0.05203843,0.16785737772460985
2025-01-08 09:46:10.561608192,0.05410367,0.16887012556919992
2025-01-08 09:46:10.571613952,0.05165017,0.16974398545783553
2025-01-08 09:46:10.581587968,0.04967868,0.17047791632670095
2025-01-08 09:46:10.591603968,0.04805833,0.17107099620325195
2025-01-08 09:46:10.601552128,0.03606099,0.17152242320366204
2025-01-08 09:46:10.611597056,0.02032769,0.17183151642648736
2025-01-08 09:46:10.621444864,0.00960815,0.17199771674162997
2025-01-08 09:46:10.631463936,0.00052929,0.17202058747376298
2025-01-08 09:46:10.641513984,0.00250351,0.1718998149794828
2025-01-08 09:46:10.651655936,0.01854688,0.17163520911753802
2025-01-08 09:46:10.661614848,0.03362781,0.17122670361158254
2025-01-08 09:46:10.671486976,0.03736603,0.17067435630499478
2025-01-08 09:46:10.681609984,0.02644861,0.16997834930739614
2025-01-08 09:46:10.691513088,0.0116545,0.16913898903260094
2025-01-08 09:46:10.701649920,-0.0107379,0.16815670612782319
2025-01-08 09:46:10.711621888,-0.03242147,0.1670320552940604
2025-01-08 09:46:10.721533952,-0.03420645,0.16576571499767292
2025-01-08 09:46:10.731715072,-0.02503204,0.16435848707327252
2025-01-08 09:46:10.741807104,-0.00928879,0.1628112962181267
2025-01-08 09:46:10.751653888,0.01506031,0.1611251893783865
2025-01-08 09:46:10.761586944,0.03982282,0.15930133502753652
2025-01-08 09:46:10.771717120,0.06946552,0.15734102233756456
2025-01-08 09:46:10.781698816,0.09288746,0.15524566024343972
2025-01-08 09:46:10.791624960,0.10691828,0.15301677640158803
2025-01-08 09:46:10.801570816,0.11347497,0.15065601604314138
2025-01-08 09:46:10.811738880,0.12240136,0.14816514072283832
2025-01-08 09:46:10.821752064,0.12926888,0.14554602696453744
2025-01-08 09:46:10.831758080,0.15286493,0.1428006648044073
2025-01-08 09:46:10.841833216,0.17314321,0.139931156232938
2025-01-08 09:46:10.851887872,0.19661123,0.13693971353701948
2025-01-08 09:46:10.861948928,0.22575581,0.13382865754341125
2025-01-08 09:46:10.871761152,0.2575804,0.13060041576502587
2025-01-08 09:46:10.881925120,0.28996187,0.1272575204515293
2025-01-08 09:46:10.892015104,0.3142302,0.1238026065458486
2025-01-08 09:46:10.901896960,0.31938457,0.12023840954826506
2025-01-08 09:46:10.912036864,0.32193011,0.11656776328984951
2025-01-08 09:46:10.921891072,0.31735879,0.1127935976170822
2025-01-08 09:46:10.931705856,0.32823443,0.10891893598957701
2025-01-08 09:46:10.941638912,0.3288241,0.10494689299291071
2025-01-08 09:46:10.951649792,0.31983483,0.10088067176863373
2025-01-08 09:46:10.961686016,0.28515339,0.09672356136361261
2025-01-08 09:46:10.971848960,0.25494361,0.09247893400093259
2025-01-08 09:46:10.981868032,0.26488572,0.0881502422746534
2025-01-08 09:46:10.991899904,0.28944975,0.08374101627078719
2025-01-08 09:46:11.001848832,0.30485135,0.07925486061693092
2025-01-08 09:46:11.011981056,0.32076275,0.07469545146305308
2025-01-08 09:46:11.021730048,0.34433949,0.07006653339599667
2025-01-08 09:46:11.031836928,0.3544848,0.0653719162903231
2025-01-08 09:46:11.042014976,0.34821618,0.060615472098178275
2025-01-08 09:46:11.051963136,0.32629305,0.05580113158092156
2025-01-08 09:46:11.061988096,0.30710876,0.05093288098530933
2025-01-08 09:46:11.071710208,0.29097974,0.04601475866707949
2025-01-08 09:46:11.081933056,0.27965337,0.04105085166483068
2025-01-08 09:46:11.091803136,0.25713652,0.03604529222713922
2025-01-08 09:46:11.101785856,0.22090465,0.03100225429589622
2025-01-08 09:46:11.111857920,0.16405004,0.02592594994889686
2025-01-08 09:46:11.121947904,0.13225764,0.020820625804743777
2025-01-08 09:46:11.131949824,0.119066,0.015690559393171485
2025-01-08 09:46:11.142050048,0.11460102,0.010540055493925999
2025-01-08 09:46:11.151959808,0.09300792,0.005373442447369158
2025-01-08 09:46:11.163127040,0.06423396,0.0001950684400017799
2025-01-08 09:46:11.171884032,0.04008269,-0.004990702231869017
2025-01-08 09:46:11.181953792,0.02870339,-0.01017949291707968
2025-01-08 09:46:11.192029952,0.04395264,-0.015366918379907302
2025-01-08 09:46:11.202047232,0.03923512,-0.020548588582436935
2025-01-08 09:46:11.212048896,0.03618604,-0.02572011247570167
2025-01-08 09:46:11.222001920,0.02056026,-0.03087710179629109
2025-01-08 09:46:11.232093952,-0.03105903,-0.036015174865110244
2025-01-08 09:46:11.242056960,-0.09253103,-0.04112996038497258
2025-01-08 09:46:11.251937024,-0.15729451,-0.04621710123370055
2025-01-08 09:46:11.261793024,-0.20664346,-0.0512722582494151
2025-01-08 09:46:11.271995136,-0.22421491,-0.0562911140046917
2025-01-08 09:46:11.281966848,-0.18597358,-0.06126937656627254
2025-01-08 09:46:11.291975936,-0.1282661,-0.06620278323703101
2025-01-08 09:46:11.302004224,-0.07572752,-0.07108710427689564
2025-01-08 09:46:11.311981824,-0.02018869,-0.07591814659945895
2025-01-08 09:46:11.322167040,0.00159085,-0.0806917574410116
2025-01-08 09:46:11.332099072,-0.01220608,-0.08540382799876432
2025-01-08 09:46:11.342065152,-0.04399586,-0.09005029703504305
2025-01-08 09:46:11.352190976,-0.0916512,-0.09462715444427149
2025-01-08 09:46:11.362219008,-0.14467478,-0.09913044477958056
2025-01-08 09:46:11.372916992,-0.17142349,-0.10355627073591984
2025-01-08 09:46:11.382746880,-0.21500987,-0.10790079658657989
2025-01-08 09:46:11.392061952,-0.21513641,-0.11216025157007166
2025-01-08 09:46:11.402136064,-0.19444501,-0.11633093322434987
2025-01-08 09:46:11.412179968,-0.18007666,-0.12040921066541056
2025-01-08 09:46:11.422125056,-0.18246907,-0.12439152780733781
2025-01-08 09:46:11.432208128,-0.18003929,-0.12827440652092556
2025-01-08 09:46:11.442210048,-0.17715782,-0.13205444972804659
2025-01-08 09:46:11.452227072,-0.19721287,-0.135728344428999
2025-01-08 09:46:11.462194944,-0.20876962,-0.13929286466011592
2025-01-08 09:46:11.472219904,-0.18995172,-0.1427448743789771
2025-01-08 09:46:11.482139136,-0.19350046,-0.1460813302746301
2025-01-08 09:46:11.492256000,-0.21445686,-0.14929928450028582
2025-01-08 09:46:11.502292992,-0.24605024,-0.15239588732601944
2025-01-08 09:46:11.512242944,-0.26806533,-0.15536838970907912
2025-01-08 09:46:11.522311936,-0.29047358,-0.15821414577946974
2025-01-08 09:46:11.532120064,-0.31674278,-0.16093061523855398
2025-01-08 09:46:11.542356992,-0.32784092,-0.1635153656684852
2025-01-08 09:46:11.552323072,-0.34566605,-0.1659660747503665
2025-01-08 09:46:11.562396928,-0.35722083,-0.16828053238909946
2025-01-08 09:46:11.572109056,-0.38597447,-0.17045664274297856
2025-01-08 09:46:11.582336000,-0.38225889,-0.1724924261561556
2025-01-08 09:46:11.592278016,-0.38727409,-0.17438602099219128
2025-01-08 09:46:11.602277888,-0.40538144,-0.1761356853669928
2025-01-08 09:46:11.612230912,-0.4038583,-0.17773979877951981
2025-01-08 09:46:11.622334976,-0.42155898,-0.17919686363873424
2025-01-08 09:46:11.632221952,-0.42675346,-0.1805055066853565
2025-01-08 09:46:11.642384128,-0.40522116,-0.18166448030707924
2025-01-08 09:46:11.652326144,-0.3712548,-0.18267266374598568
2025-01-08 09:46:11.662199040,-0.32681966,-0.1835290641970104
2025-01-08 09:46:11.672382208,-0.28468108,-0.1842328177963748
2025-01-08 09:46:11.682360832,-0.27653188,-0.1847831904990258
2025-01-08 09:46:11.692580864,-0.32648796,-0.18517957884420128
2025-01-08 09:46:11.702231040,-0.3988691,-0.18542151060834502
2025-01-08 09:46:11.712306944,-0.43527389,-0.18550864534468817
2025-01-08 09:46:11.722438144,-0.45552373,-0.1854407748089172
2025-01-08 09:46:11.732750848,-0.43995208,-0.18521782327044414
2025-01-08 09:46:11.742664960,-0.42394048,-0.18483984770889542
2025-01-08 09:46:11.752361984,-0.41572034,-0.18430703789553735
2025-01-08 09:46:11.762441984,-0.39971203,-0.18361971635945415
2025-01-08 09:46:11.772547072,-0.34572172,-0.18277833823839768
2025-01-08 09:46:11.782550016,-0.28965706,-0.18178349101432603
2025-01-08 09:46:11.792509184,-0.22848719,-0.1806358941337518
2025-01-08 09:46:11.802472960,-0.19270802,-0.17933639851312108
2025-01-08 09:46:11.812481024,-0.18011802,-0.177885985929543
2025-01-08 09:46:11.822213888,-0.16368455,-0.17628576829729356
2025-01-08 09:46:11.832283904,-0.15817869,-0.17453698683061472
2025-01-08 09:46:11.842572800,-0.17999077,-0.17264101109343216
2025-01-08 09:46:11.852546816,-0.21855718,-0.1705993379367138
2025-01-08 09:46:11.862541824,-0.23852921,-0.16841359032428743
2025-01-08 09:46:11.872570112,-0.22368979,-0.1660855160480413
2025-01-08 09:46:11.882594048,-0.2038306,-0.1636169863335194
2025-01-08 09:46:11.892477952,-0.18506938,-0.16100999433702837
2025-01-08 09:46:11.902647040,-0.1583001,-0.1582666535354648
2025-01-08 09:46:11.912556800,-0.15519136,-0.1553891960101664
2025-01-08 09:46:11.922523904,-0.15636587,-0.1523799706261873
2025-01-08 09:46:11.932448000,-0.14044321,-0.14924144110848617
2025-01-08 09:46:11.942639104,-0.13880008,-0.1459761840166121
2025-01-08 09:46:11.952593152,-0.13231224,-0.14258688661955923
2025-01-08 09:46:11.962574080,-0.10886508,-0.13907634467255323
2025-01-08 09:46:11.972477952,-0.08335495,-0.13544746009761668
2025-01-08 09:46:11.982592000,-0.03987533,-0.1317032385698508
2025-01-08 09:46:11.992654080,-0.00424498,-0.12784678701144933
2025-01-08 09:46:12.002752000,0.00861788,-0.12388131099554853
2025-01-08 09:46:12.012815104,-0.0023216,-0.11981011206209402
2025-01-08 09:46:12.022638080,-0.02377301,-0.1156365849479859
2025-01-08 09:46:12.032686080,-0.04141867,-0.11136421473383935
2025-01-08 09:46:12.042710016,-0.05838084,-0.10699657390977496
2025-01-08 09:46:12.052596992,-0.07409,-0.10253731936272305
2025-01-08 09:46:12.062624000,-0.09172487,-0.09799018928779935
2025-01-08 09:46:12.073196800,-0.10740471,-0.0933590000263771
2025-01-08 09:46:12.082746112,-0.11155862,-0.08864764283354713
2025-01-08 09:46:12.093767936,-0.10370314,-0.08386008057772087
2025-01-08 09:46:12.102576128,-0.09267139,-0.07900034437519456
2025-01-08 09:46:12.112716032,-0.07868892,-0.07407253016255066
2025-01-08 09:46:12.122694912,-0.07771677,-0.06908079520982995
2025-01-08 09:46:12.132574208,-0.07238573,-0.0640293545774617
2025-01-08 09:46:12.142632960,-0.07030469,-0.05892247751999177
2025-01-08 09:46:12.152573952,-0.052104,-0.053764483839697
2025-01-08 09:46:12.162627840,-0.0265581,-0.048559740193220756
2025-01-08 09:46:12.172825088,-0.00681847,-0.0433126563544075
2025-01-08 09:46:12.182620928,0.00578272,-0.03802768143655762
2025-01-08 09:46:12.192835072,0.01591116,-0.032709300077358804
2025-01-08 09:46:12.202668800,0.03208178,-0.02736202858978801
2025-01-08 09:46:12.212788992,0.05342424,-0.021990411082308647
2025-01-08 09:46:12.222776832,0.0836665,-0.016599015551719623
2025-01-08 09:46:12.232644096,0.1150955,-0.011192429952037487
2025-01-08 09:46:12.242712064,0.13818979,-0.00577525824281692
2025-01-08 09:46:12.252837888,0.14286661,-0.0003521164203367418
2025-01-08 09:46:12.262681856,0.15515167,0.005072371464903946
2025-01-08 09:46:12.272674048,0.14949048,0.010493577300921092
2025-01-08 09:46:12.282887936,0.15117192,0.015906872913741304
2025-01-08 09:46:12.292911104,0.16339976,0.021307634070177453
2025-01-08 09:46:12.302745088,0.19403207,0.026691244480400087
2025-01-08 09:46:12.312721920,0.24417186,0.032053099796815046
2025-01-08 09:46:12.322835968,0.30033088,0.03738861160576065
2025-01-08 09:46:12.332864000,0.33766758,0.04269321140853955
2025-01-08 09:46:12.342915072,0.34774822,0.047962354588308456
2025-01-08 09:46:12.352881920,0.32463378,0.05319152435935572
2025-01-08 09:46:12.362883072,0.26759225,0.05837623569531263
2025-01-08 09:46:12.373321984,0.22923964,0.06351203923285763
2025-01-08 09:46:12.382742784,0.21026415,0.06859452514749242
2025-01-08 09:46:12.392966144,0.21249902,0.07361932699799034
2025-01-08 09:46:12.402766848,0.22962952,0.0785821255361397
2025-01-08 09:46:12.413029888,0.25629562,0.08347865247843952
2025-01-08 09:46:12.422790144,0.30491281,0.08830469423642406
2025-01-08 09:46:12.432974080,0.35371894,0.0930560956023398
2025-01-08 09:46:12.443070976,0.37089169,0.09772876338692099
2025-01-08 09:46:12.453030144,0.35966212,0.1023186700060622
2025-01-08 09:46:12.462907136,0.35123634,0.10682185701321725
2025-01-08 09:46:12.472976896,0.34405458,0.11123443857440736
2025-01-08 09:46:12.482966784,0.32911116,0.11555260488276281
2025-01-08 09:46:12.492839936,0.31423146,0.1197726255095779
2025-01-08 09:46:12.502819072,0.28963751,0.12389085268890741
2025-01-08 09:46:12.512953088,0.27503759,0.12790372453279236
2025-01-08 09:46:12.522993152,0.23939228,0.13180776817425843
2025-01-08 09:46:12.533025024,0.20127648,0.135599602835294
2025-01-08 09:46:12.543072000,0.15728515,0.13927594281707412
2025-01-08 09:46:12.553054976,0.12046385,0.1428336004097671
2025-01-08 09:46:12.563028992,0.08413529,0.14626948871932613
2025-01-08 09:46:12.573008128,0.05932707,0.1495806244087373
2025-01-08 09:46:12.582887936,0.0446862,0.15276413035127298
2025-01-08 09:46:12.593075968,0.04342222,0.15581723819336843
2025-01-08 09:46:12.603068160,0.039581,0.158737290824822
2025-01-08 09:46:12.613097984,0.02624899,0.16152174475409548
2025-01-08 09:46:12.623183104,0.00671065,0.16416817238657266
2025-01-08 09:46:12.633065984,-0.00158882,0.16667426420371764
2025-01-08 09:46:12.643037184,-0.01397663,0.1690378308411602
2025-01-08 09:46:12.653122816,-0.02403229,0.17125680506382093
2025-01-08 09:46:12.663206144,-0.0362379,0.1733292436362778
2025-01-08 09:46:12.674441984,-0.03564703,0.17525332908666658
2025-01-08 09:46:12.683293184,-0.02901882,0.17702737136249846
2025-01-08 09:46:12.693185024,-0.02082312,0.17864980937687186
2025-01-08 09:46:12.703033856,-0.01490778,0.18011921244364953
2025-01-08 09:46:12.713138176,-0.00543988,0.18143428160026753
2025-01-08 09:46:12.723124992,0.00308937,0.18259385081694324
2025-01-08 09:46:12.733117952,0.00578582,0.18359688809114053
2025-01-08 09:46:12.743230208,0.01650786,0.18444249642625876
2025-01-08 09:46:12.753232128,0.02271712,0.18512991469360454
2025-01-08 09:46:12.763011072,0.03404158,0.18565851837681094
2025-01-08 09:46:12.773192960,0.03875494,0.1860278201979717
2025-01-08 09:46:12.783190016,0.0403254,0.18623747062485363
2025-01-08 09:46:12.793071104,0.03329563,0.18628725825866554
2025-01-08 09:46:12.803024896,0.02748549,0.18617711010195337
2025-01-08 09:46:12.813060096,0.0247367,0.18590709170630546
2025-01-08 09:46:12.823203072,0.02175701,0.18547740719964942
2025-01-08 09:46:12.833244160,0.02328163,0.1848883991930342
2025-01-08 09:46:12.843151104,0.03729355,0.18414054856688744
2025-01-08 09:46:12.853095936,0.05872911,0.18323447413685143
2025-01-08 09:46:12.863305984,0.08588737,0.18217093219940192
2025-01-08 09:46:12.873280000,0.11821479,0.18095081595755896
2025-01-08 09:46:12.883086080,0.14640874,0.17957515482710684
2025-01-08 09:46:12.893306112,0.16169727,0.1780451136238411
2025-01-08 09:46:12.903315968,0.17498022,0.17636199163246824
2025-01-08 09:46:12.913441024,0.1841343,0.1745272215578839
2025-01-08 09:46:12.923321088,0.17843592,0.17254236835966244
2025-01-08 09:46:12.933392896,0.15621221,0.170409127970691
2025-01-08 09:46:12.943460096,0.1466912,0.16812932590098167
2025-01-08 09:46:12.953181952,0.14739317,0.16570491572780086
2025-01-08 09:46:12.963248128,0.17311865,0.16313797747334938
2025-01-08 09:46:12.973210112,0.20377427,0.16043071587133126
2025-01-08 09:46:12.983341824,0.22096717,0.1575854585238415
2025-01-08 09:46:12.993380096,0.23962802,0.15460465395010603
2025-01-08 09:46:13.003202816,0.24674189,0.15149086952869764
2025-01-08 09:46:13.013233920,0.2368347,0.14824678933494662
2025-01-08 09:46:13.023283968,0.24147749,0.14487521187536087
2025-01-08 09:46:13.033409024,0.25379109,0.1413790477209564
2025-01-08 09:46:13.043451136,0.27411717,0.1377613170414943
2025-01-08 09:46:13.053245184,0.31533277,0.13402514704270072
2025-01-08 09:46:13.063438848,0.37144417,0.130173769308642
2025-01-08 09:46:13.073424128,0.39220929,0.1262105170515016
2025-01-08 09:46:13.083429120,0.39896077,0.12213882227109626
2025-01-08 09:46:13.093387008,0.38175583,0.11796221282654298
2025-01-08 09:46:13.103432960,0.36758548,0.11368430942257024
2025-01-08 09:46:13.113480192,0.33330041,0.10930882251304243
2025-01-08 09:46:13.123344896,0.29620391,0.10483954912433904
2025-01-08 09:46:13.133475072,0.26022255,0.10028036960130436
2025-01-08 09:46:13.143613184,0.23335046,0.09563524427855033
2025-01-08 09:46:13.153467904,0.23747945,0.09090821007996458
2025-01-08 09:46:13.163321856,0.28059411,0.08610337704933749
2025-01-08 09:46:13.173562112,0.34652662,0.08122492481508846
2025-01-08 09:46:13.183495936,0.39482766,0.0762770989921253
2025-01-08 09:46:13.193520896,0.3882156,0.07126420752393363
2025-01-08 09:46:13.203489024,0.32898712,0.06619061696804308
2025-01-08 09:46:13.213534976,0.23778474,0.06106074872807021
2025-01-08 09:46:13.223517952,0.12147343,0.055879075235587515
2025-01-08 09:46:13.233622016,-0.01387686,0.050650116085111795
2025-01-08 09:46:13.243612160,-0.10705954,0.045378434125551294
2025-01-08 09:46:13.253474048,-0.15669948,0.04006863151148842
2025-01-08 09:46:13.263634944,-0.11988014,0.03472534571771296
2025-01-08 09:46:13.273462016,-0.03270614,0.029353245520457028
2025-01-08 09:46:13.283572992,0.03302848,0.023957026948810568
2025-01-08 09:46:13.293584128,0.10204464,0.018541409209828535
2025-01-08 09:46:13.303633920,0.1303221,0.013111130590863848
2025-01-08 09:46:13.313446912,0.11233622,0.007670944342681828
2025-01-08 09:46:13.323442944,0.09256697,0.002225614546933573
2025-01-08 09:46:13.333499904,0.0533241,-0.00322008802842062
2025-01-08 09:46:13.343683840,0.0073936,-0.008661390082132202
2025-01-08 09:46:13.353647872,-0.0219534,-0.01409351993751667
2025-01-08 09:46:13.363624192,-0.05325091,-0.019511711701514042
2025-01-08 09:46:13.373792000,-0.09286904,-0.024911209421334395
2025-01-08 09:46:13.383656960,-0.12527889,-0.030287271235062762
2025-01-08 09:46:13.393743872,-0.13051879,-0.03563517351260178
2025-01-08 09:46:13.403641088,-0.10492271,-0.040950214983336196
2025-01-08 09:46:13.415691008,-0.07923144,-0.046227720846912145
2025-01-08 09:46:13.423976960,-0.05407798,-0.05146304686353694
2025-01-08 09:46:13.435805952,-0.06196529,-0.05665158342022138
2025-01-08 09:46:13.443891968,-0.0664745,-0.061788759569403176
2025-01-08 09:46:13.453705984,-0.05109227,-0.06687004703641403
2025-01-08 09:46:13.463699968,-0.04016852,-0.07189096419227646
2025-01-08 09:46:13.473763072,-0.05725247,-0.07684707998834565
2025-01-08 09:46:13.483695104,-0.09411979,-0.08173401784934006
2025-01-08 09:46:13.493719040,-0.12571967,-0.08654745952134313
2025-01-08 09:46:13.503855104,-0.16443378,-0.09128314887138955
2025-01-08 09:46:13.513874176,-0.20101833,-0.09593689563529631
2025-01-08 09:46:13.523702016,-0.20998704,-0.10050457911043534
2025-01-08 09:46:13.534221056,-0.2085169,-0.10498215179019467
2025-01-08 09:46:13.543785984,-0.22451794,-0.10936564293692294
2025-01-08 09:46:13.553974016,-0.22142577,-0.1136511620902025
2025-01-08 09:46:13.563780096,-0.20699418,-0.11783490250735221
2025-01-08 09:46:13.573772032,-0.18750745,-0.12191314453311657
2025-01-08 09:46:13.583547136,-0.15782028,-0.12588225889555998
2025-01-08 09:46:13.593729024,-0.18064171,-0.12973870992524492
2025-01-08 09:46:13.603792896,-0.24839473,-0.1334790586948394
2025-01-08 09:46:13.613827840,-0.32158357,-0.13709996607636651
2025-01-08 09:46:13.623691008,-0.38684881,-0.1405981957133776
2025-01-08 09:46:13.633707008,-0.41743737,-0.14397061690540602
2025-01-08 09:46:13.643748096,-0.40743035,-0.14721420740212973
2025-01-08 09:46:13.653865984,-0.39886338,-0.15032605610475056
2025-01-08 09:46:13.663939072,-0.39689434,-0.15330336567217634
2025-01-08 09:46:13.673856000,-0.38254482,-0.15614345502967392
2025-01-08 09:46:13.683872000,-0.38287574,-0.15884376177774512
2025-01-08 09:46:13.693895936,-0.3961426,-0.16140184449906142
2025-01-08 09:46:13.703720192,-0.4121117,-0.1638153849613836
2025-01-08 09:46:13.713764864,-0.44221425,-0.16608219021447895
2025-01-08 09:46:13.723901952,-0.46590918,-0.16820019457914334
2025-01-08 09:46:13.733839872,-0.47086728,-0.1701674615265235
2025-01-08 09:46:13.743820032,-0.46482056,-0.17198218544603533
2025-01-08 09:46:13.753920000,-0.46015614,-0.17364269330026474
2025-01-08 09:46:13.763934976,-0.44762224,-0.17514744616533864
2025-01-08 09:46:13.773948928,-0.40851665,-0.17649504065535082
2025-01-08 09:46:13.784027136,-0.38379335,-0.17768421022952885
2025-01-08 09:46:13.793998080,-0.3899864,-0.17871382638092823
2025-01-08 09:46:13.803719936,-0.39734137,-0.17958289970554384
2025-01-08 09:46:13.813859072,-0.414801,-0.1802905808508317
2025-01-08 09:46:13.823837952,-0.42589301,-0.18083616134273817
2025-01-08 09:46:13.833722112,-0.41307342,-0.18121907429044093
2025-01-08 09:46:13.843815168,-0.3838855,-0.1814388949681089
2025-01-08 09:46:13.853862912,-0.35240239,-0.18149534127309935
2025-01-08 09:46:13.863902976,-0.3130638,-0.18138827406011288
2025-01-08 09:46:13.874224896,-0.26455522,-0.18111769735094013
2025-01-08 09:46:13.883900928,-0.22837269,-0.18068375841953732
2025-01-08 09:46:13.894023936,-0.20038724,-0.18008674775228017
2025-01-08 09:46:13.903936000,-0.14264363,-0.1793270988833523
2025-01-08 09:46:13.914045184,-0.07308781,-0.17840538810533235
2025-01-08 09:46:13.924026880,-0.03160679,-0.17732233405515704
2025-01-08 09:46:13.933932032,-0.01073951,-0.1760787971757404
2025-01-08 09:46:13.943993088,-0.01290071,-0.17467577905364165
2025-01-08 09:46:13.954137088,-0.04414582,-0.17311442163328278
2025-01-08 09:46:13.963937024,-0.07465976,-0.171396006308322
2025-01-08 09:46:13.973947136,-0.08322859,-0.16952195289089952
2025-01-08 09:46:13.983938048,-0.07097042,-0.16749381845957706
2025-01-08 09:46:13.994147072,-0.05313927,-0.16531329608689954
2025-01-08 09:46:14.004653056,-0.03732902,-0.16298221344761388
2025-01-08 09:46:14.014134016,-0.03587496,-0.16050253130868206
2025-01-08 09:46:14.024014080,-0.03136283,-0.1578763419023308
2025-01-08 09:46:14.034392064,-0.04323804,-0.15510586718348393
2025-01-08 09:46:14.044147968,-0.04992723,-0.1521934569730225
2025-01-08 09:46:14.054115072,-0.04918826,-0.14914158698842073
2025-01-08 09:46:14.064135936,-0.05075276,-0.14595285676340233
2025-01-08 09:46:14.074166016,-0.05648303,-0.14262998745836192
2025-01-08 09:46:14.084162048,-0.04678428,-0.13917581956339242
2025-01-08 09:46:14.094173952,-0.02233487,-0.1355933104958485
2025-01-08 09:46:14.104387072,-0.01049978,-0.13188553209447998
2025-01-08 09:46:14.114172928,-0.01313365,-0.12805566801224946
2025-01-08 09:46:14.124032000,-0.02426022,-0.12410701101004418
2025-01-08 09:46:14.134216192,-0.04154074,-0.12004296015357811
2025-01-08 09:46:14.144258048,-0.04349756,-0.11586701791586725
2025-01-08 09:46:14.154210048,-0.04117531,-0.11158278718774142
2025-01-08 09:46:14.164040192,-0.04181308,-0.10719396819894206
2025-01-08 09:46:14.174091008,-0.03079832,-0.10270435535243054
2025-01-08 09:46:14.184207872,-0.01655674,-0.09811783397461227
2025-01-08 09:46:14.194119936,-0.00548637,-0.093438376984255
2025-01-08 09:46:14.204229120,-0.0085808,-0.08867004148295098
2025-01-08 09:46:14.214138112,-0.02156115,-0.08381696527004538
2025-01-08 09:46:14.224263936,-0.03351885,-0.07888336328501994
2025-01-08 09:46:14.234136064,-0.039226,-0.0738735239803837
2025-01-08 09:46:14.244347136,-0.0351401,-0.0687918056281885
2025-01-08 09:46:14.254580992,-0.02608919,-0.06364263256334345
2025-01-08 09:46:14.264385024,-0.01432103,-0.058430491366961566
2025-01-08 09:46:14.274449152,0.00519168,-0.05315992699302527
2025-01-08 09:46:14.284316928,0.01540536,-0.047835538841707825
2025-01-08 09:46:14.294183936,0.02335906,-0.042461976782738046
2025-01-08 09:46:14.304325120,0.03477222,-0.0370439371322387
2025-01-08 09:46:14.314227200,0.05326754,-0.03158615858651464
2025-01-08 09:46:14.324170240,0.06599629,-0.026093418116303467
2025-01-08 09:46:14.334359040,0.0702166,-0.020570526825038436
2025-01-08 09:46:14.344264960,0.06973231,-0.015022325774708505
2025-01-08 09:46:14.354201088,0.08115643,-0.009453681782928993
2025-01-08 09:46:14.364370176,0.09774774,-0.0038694831948649934
2025-01-08 09:46:14.374470912,0.10584742,0.0017253643663298736
2025-01-08 09:46:14.384352000,0.13312089,0.007325942266870557
2025-01-08 09:46:14.394562048,0.15187961,0.012927323143790501
2025-01-08 09:46:14.404540928,0.16843909,0.018524575196767548
2025-01-08 09:46:14.414531840,0.16371161,0.02411276648659559
2025-01-08 09:46:14.424516864,0.15327752,0.029686969236564435
2025-01-08 09:46:14.434510848,0.15036541,0.03524226413300694
2025-01-08 09:46:14.444634880,0.14996374,0.040773744621269196
2025-01-08 09:46:14.454580992,0.16075611,0.04627652119336341
2025-01-08 09:46:14.464345088,0.17880976,0.051745725663565265
2025-01-08 09:46:14.474220032,0.20877123,0.057176515428229865
2025-01-08 09:46:14.484384000,0.21269977,0.062564077706108
2025-01-08 09:46:14.494329088,0.22558558,0.06790363375546205
2025-01-08 09:46:14.504532992,0.24299687,0.07319044306429764
2025-01-08 09:46:14.514394112,0.23310477,0.07841980751004922
2025-01-08 09:46:14.524507136,0.2213695,0.08358707548508082
2025-01-08 09:46:14.534518016,0.20077497,0.08868764598439277
2025-01-08 09:46:14.544404992,0.19430888,0.09371697265195533
2025-01-08 09:46:14.554503936,0.21254802,0.09867056778212252
2025-01-08 09:46:14.564467968,0.23597246,0.10354400627261938
2025-01-08 09:46:14.574553856,0.25267154,0.10833292952563398
2025-01-08 09:46:14.584357888,0.28053331,0.11303304929358855
2025-01-08 09:46:14.594557952,0.28974986,0.11764015146621276
2025-01-08 09:46:14.604527104,0.29485363,0.12215009979558794
2025-01-08 09:46:14.614636032,0.30690414,0.1265588395558848
2025-01-08 09:46:14.624473088,0.307383,0.13086240113457323
2025-01-08 09:46:14.634524160,0.29088378,0.13505690355193967
2025-01-08 09:46:14.644758016,0.25354934,0.1391385579058044
2025-01-08 09:46:14.654712832,0.22108608,0.14310367073840333
2025-01-08 09:46:14.664539136,0.18598378,0.14694864732245502
2025-01-08 09:46:14.674732032,0.14422834,0.15066999486350907
2025-01-08 09:46:14.684432896,0.10706627,0.1542643256157392
2025-01-08 09:46:14.694608896,0.08337247,0.15772835990842082
2025-01-08 09:46:14.704598016,0.07805663,0.16105892908040836
2025-01-08 09:46:14.714499072,0.07610494,0.16425297832000318
2025-01-08 09:46:14.724595968,0.07261157,0.16730756940768948
2025-01-08 09:46:14.734614016,0.06525004,0.17021988335929125
2025-01-08 09:46:14.744704000,0.05070037,0.1729872229671977
2025-01-08 09:46:14.754502144,0.03052938,0.17560701523738226
2025-01-08 09:46:14.764664832,0.00494981,0.1780768137200359
2025-01-08 09:46:14.774631936,-0.00918645,0.18039430073172638
2025-01-08 09:46:14.784663808,-0.02945197,0.18255728946708413
2025-01-08 09:46:14.794838016,-0.04379183,0.18456372599811618
2025-01-08 09:46:14.804754944,-0.04790682,0.18641169115934053
2025-01-08 09:46:14.815095808,-0.04450774,0.18809940231703534
2025-01-08 09:46:14.824557056,-0.04048747,0.18962521502099627
2025-01-08 09:46:14.834733056,-0.0335753,0.19098762453729612
2025-01-08 09:46:14.844794112,-0.02802414,0.1921852672606429
2025-01-08 09:46:14.854743040,-0.02347857,0.19321692200503807
2025-01-08 09:46:14.864754944,-0.0166868,0.1940815111715407
2025-01-08 09:46:14.874886144,-0.00211686,0.19477810179204808
2025-01-08 09:46:14.884744960,0.01155746,0.1953059064481136
2025-01-08 09:46:14.894867968,0.02080095,0.19566428406392986
2025-01-08 09:46:14.904800768,0.03034449,0.19585274057270882
2025-01-08 09:46:14.914830080,0.0417254,0.19587092945580956
2025-01-08 09:46:14.924846848,0.04987937,0.19571865215406692
2025-01-08 09:46:14.934814976,0.04294533,0.19539585835088746
2025-01-08 09:46:14.944855808,0.04233599,0.19490264612679165
2025-01-08 09:46:14.954824960,0.02815777,0.1942392619851905
2025-01-08 09:46:14.964819968,0.01919156,0.19340610074929804
2025-01-08 09:46:14.975141120,0.0209918,0.192403705330193
2025-01-08 09:46:14.984700928,0.02758777,0.19123276636615302
2025-01-08 09:46:14.994704896,0.04323369,0.1898941217335001
2025-01-08 09:46:15.004940032,0.05514824,0.18838875592930396
2025-01-08 09:46:15.014717184,0.07576519,0.1867177993264039
2025-01-08 09:46:15.024701952,0.10257542,0.18488252730132024
2025-01-08 09:46:15.034904064,0.13382971,0.18288435923573718
2025-01-08 09:46:15.044708096,0.16056675,0.1807248573923478
2025-01-08 09:46:15.054765056,0.16741842,0.17840572566596505
2025-01-08 09:46:15.064939008,0.18499303,0.17592880821090504
2025-01-08 09:46:15.074840064,0.21708536,0.17329608794576554
2025-01-08 09:46:15.084841984,0.25821382,0.1705096849368202
2025-01-08 09:46:15.094801920,0.2956503,0.16757185466136307
2025-01-08 09:46:15.104918016,0.32558703,0.16448498615243798
2025-01-08 09:46:15.114979072,0.3442359,0.16125160002649275
2025-01-08 09:46:15.124996864,0.34914917,0.15787434639560102
2025-01-08 09:46:15.134809856,0.34068179,0.1543560026659946
2025-01-08 09:46:15.145004032,0.33189851,0.1506994712247499
2025-01-08 09:46:15.154939904,0.31196886,0.14690777701656832
2025-01-08 09:46:15.164849920,0.30488086,0.1429840650126893
2025-01-08 09:46:15.174785024,0.31066251,0.13893159757406726
2025-01-08 09:46:15.184824064,0.32409072,0.13475375171103782
2025-01-08 09:46:15.195013888,0.32999885,0.13045401624178887
2025-01-08 09:46:15.204996096,0.33511603,0.12603598885204223
2025-01-08 09:46:15.214855936,0.36948836,0.12150337305843656
2025-01-08 09:46:15.224986112,0.42009872,0.11685997507818918
2025-01-08 09:46:15.234839040,0.46448588,0.11210970060769679
2025-01-08 09:46:15.244907008,0.477736,0.10725655151281344
2025-01-08 09:46:15.255054848,0.42954874,0.10230462243362431
2025-01-08 09:46:15.265374976,0.35876608,0.09725809730660977
2025-01-08 09:46:15.275817984,0.26467371,0.09212124580716394
2025-01-08 09:46:15.285489152,0.2064603,0.08689841971550775
2025-01-08 09:46:15.295067136,0.1744439,0.08159404920909952
2025-01-08 09:46:15.305274880,0.14769179,0.07621263908471537
2025-01-08 09:46:15.315267072,0.1547935,0.0707587649134307
2025-01-08 09:46:15.325050112,0.16740757,0.06523706913179857
2025-01-08 09:46:15.335181056,0.16695976,0.059652257072571206
2025-01-08 09:46:15.345081088,0.15288466,0.054009092938372825
2025-01-08 09:46:15.355038976,0.12277699,0.04831239572177677
2025-01-08 09:46:15.365063936,0.09001917,0.04256703507529015
2025-01-08 09:46:15.375160832,0.07333887,0.0367779271347971
2025-01-08 09:46:15.385200896,0.06035143,0.03095003030004938
2025-01-08 09:46:15.395153920,0.05808759,0.02508834097583511
2025-01-08 09:46:15.405134080,0.07718146,0.01919788927749182
2025-01-08 09:46:15.415149824,0.0828495,0.013283734704462511
2025-01-08 09:46:15.425154816,0.06606013,0.007350961785621531
2025-01-08 09:46:15.435134976,0.04169273,0.0014046757001274495
2025-01-08 09:46:15.445249024,0.0206337,-0.0045500021224221
2025-01-08 09:46:15.455204864,-0.01908916,-0.010507938418734509
2025-01-08 09:46:15.465122048,-0.08589387,-0.01646399252165175
2025-01-08 09:46:15.475064064,-0.15109938,-0.022413020799238396
2025-01-08 09:46:15.485032192,-0.19781172,-0.028349881099290035
2025-01-08 09:46:15.495127040,-0.21138012,-0.03426943719541954
2025-01-08 09:46:15.505208064,-0.18312353,-0.04016656323087372
2025-01-08 09:46:15.515248896,-0.13231725,-0.04603614815623234
2025-01-08 09:46:15.525054976,-0.08305371,-0.05187310015714776
2025-01-08 09:46:15.535100928,-0.06389666,-0.0576723510682873
2025-01-08 09:46:15.545294080,-0.04341435,-0.06342886076965132
2025-01-08 09:46:15.555109120,-0.05217862,-0.06913762156145468
2025-01-08 09:46:15.565169152,-0.11994791,-0.07479366251377419
2025-01-08 09:46:15.575450880,-0.19127601,-0.08039205378718509
2025-01-08 09:46:15.585121024,-0.22425497,-0.08592791092063418
2025-01-08 09:46:15.595323136,-0.23103923,-0.09139639908282224
2025-01-08 09:46:15.605158144,-0.22533762,-0.09679273728339832
2025-01-08 09:46:15.615323904,-0.19282299,-0.10211220254030237
2025-01-08 09:46:15.625294080,-0.20235026,-0.10735013399962877
2025-01-08 09:46:15.635371008,-0.24046713,-0.11250193700442072
2025-01-08 09:46:15.645220096,-0.2589457,-0.11756308710885216
2025-01-08 09:46:15.655342080,-0.2494145,-0.12252913403429337
2025-01-08 09:46:15.665317120,-0.25416863,-0.12739570556381166
2025-01-08 09:46:15.675194112,-0.27415967,-0.13215851137170498
2025-01-08 09:46:15.685328128,-0.26613528,-0.1368133467847242
2025-01-08 09:46:15.695424000,-0.25074834,-0.14135609647169478
2025-01-08 09:46:15.705379072,-0.26371074,-0.1457827380583109
2025-01-08 09:46:15.715405056,-0.30594677,-0.1500893456639382
2025-01-08 09:46:15.725915904,-0.33864504,-0.15427209335732614
2025-01-08 09:46:15.735516160,-0.36496174,-0.15832725852819896
2025-01-08 09:46:15.747378176,-0.40061998,-0.16225122517177068
2025-01-08 09:46:15.755456000,-0.41394675,-0.1660404870832952
2025-01-08 09:46:15.765474048,-0.41204315,-0.1696916509598467
2025-01-08 09:46:15.775314176,-0.42649931,-0.17320143940660024
2025-01-08 09:46:15.785408000,-0.45174152,-0.17656669384496537
2025-01-08 09:46:15.795297024,-0.47695214,-0.17978437732000738
2025-01-08 09:46:15.805463040,-0.51852065,-0.18285157720468137
2025-01-08 09:46:15.815458048,-0.53534627,-0.18576550779848416
2025-01-08 09:46:15.825287168,-0.53691411,-0.18852351281822957
2025-01-08 09:46:15.835476992,-0.50263077,-0.19112306777873608
2025-01-08 09:46:15.845334016,-0.45642048,-0.19356178226131412
2025-01-08 09:46:15.855395072,-0.40255755,-0.19583740206803668
2025-01-08 09:46:15.865457920,-0.38174534,-0.19794781125987346
2025-01-08 09:46:15.875514880,-0.42087436,-0.19989103407686673
2025-01-08 09:46:15.885320960,-0.47317094,-0.20166523673863274
2025-01-08 09:46:15.895611904,-0.50354016,-0.20326872912357183
2025-01-08 09:46:15.905602816,-0.48322302,-0.20469996632527312
2025-01-08 09:46:15.915566848,-0.45483869,-0.2059575500847095
2025-01-08 09:46:15.925571072,-0.39612776,-0.2070402300969231
2025-01-08 09:46:15.935534848,-0.30733311,-0.2079469051910067
2025-01-08 09:46:15.945508864,-0.22571594,-0.20867662438230095
2025-01-08 09:46:15.955395840,-0.16903758,-0.20922858779583323
2025-01-08 09:46:15.965454080,-0.11309278,-0.20960214746013417
2025-01-08 09:46:15.975416064,-0.0802772,-0.2097968079706843
2025-01-08 09:46:15.985584128,-0.1255886,-0.20981222702234992
2025-01-08 09:46:15.995438080,-0.19738239,-0.2096482158102831
2025-01-08 09:46:16.005477888,-0.23732102,-0.20930473929887497
2025-01-08 09:46:16.015511040,-0.24951297,-0.2087819163584625
2025-01-08 09:46:16.025598976,-0.22340918,-0.20808001976960505
2025-01-08 09:46:16.035475968,-0.179088,-0.20719947609486103
2025-01-08 09:46:16.045721088,-0.13192999,-0.2061408654181082
2025-01-08 09:46:16.055632128,-0.0832473,-0.204904920951568
2025-01-08 09:46:16.065411072,-0.04222959,-0.2034925285108044
2025-01-08 09:46:16.075654144,-0.01843953,-0.20190472585808875
2025-01-08 09:46:16.085470976,-0.02465665,-0.20014270191462555
2025-01-08 09:46:16.095660032,-0.0445115,-0.19820779584226028
2025-01-08 09:46:16.105526016,-0.06729627,-0.1961014959953918
2025-01-08 09:46:16.115699968,-0.09485358,-0.19382543874393068
2025-01-08 09:46:16.125658880,-0.12211072,-0.19138140716825552
2025-01-08 09:46:16.135674112,-0.13271278,-0.18877132962722848
2025-01-08 09:46:16.145731072,-0.12027359,-0.18599727820044246
2025-01-08 09:46:16.155677184,-0.09729248,-0.18306146700598133
2025-01-08 09:46:16.165769984,-0.06169695,-0.17996625039508304
2025-01-08 09:46:16.175687936,-0.01961225,-0.17671412102520043
2025-01-08 09:46:16.185824000,0.01868731,-0.1733077078130611
2025-01-08 09:46:16.195692032,0.02873093,-0.1697497737694344
2025-01-08 09:46:16.205570048,0.00488454,-0.16604321371741113
2025-01-08 09:46:16.215878912,-0.02652872,-0.162191051896107
2025-01-08 09:46:16.225699072,-0.05896467,-0.15819643945179893
2025-01-08 09:46:16.235934976,-0.0864206,-0.15406265181860165
2025-01-08 09:46:16.245850112,-0.09096432,-0.14979308599088687
2025-01-08 09:46:16.255860992,-0.09383357,-0.14539125768974442
2025-01-08 09:46:16.265740032,-0.07891995,-0.14086079842587243
2025-01-08 09:46:16.275650048,-0.04971325,-0.13620545246137927
2025-01-08 09:46:16.285792000,-0.02085203,-0.1314290736730637
2025-01-08 09:46:16.295769856,-0.00785851,-0.1265356223198285
2025-01-08 09:46:16.305645056,-0.00594133,-0.12152916171696411
2025-01-08 09:46:16.315793152,-0.01604807,-0.11641385482012327
2025-01-08 09:46:16.325660928,-0.02499503,-0.11119396072188228
2025-01-08 09:46:16.336212992,-0.034051,-0.10587383106386672
2025-01-08 09:46:16.345665024,-0.03855968,-0.10045790636748662
2025-01-08 09:46:16.355739136,-0.05128413,-0.09495071228640367
2025-01-08 09:46:16.365788928,-0.04838395,-0.08935685578391801
2025-01-08 09:46:16.378629888,-0.02528232,-0.08368102123852739
2025-01-08 09:46:16.385889024,0.01297635,-0.07792796648097935
2025-01-08 09:46:16.395648000,0.05963582,-0.07210251876619127
2025-01-08 09:46:16.405810176,0.09558833,-0.06620957068347548
2025-01-08 09:46:16.415854848,0.12860417,-0.06025407600855705
2025-01-08 09:46:16.425712128,0.14055306,-0.05424104550092697
2025-01-08 09:46:16.435866112,0.13521343,-0.04817554265011987
2025-01-08 09:46:16.446460928,0.13323092,-0.04206267937454937
2025-01-08 09:46:16.455949056,0.13176674,-0.03590761167658048
2025-01-08 09:46:16.465959168,0.12490809,-0.02971553525755268
2025-01-08 09:46:16.475805952,0.12167227,-0.02349168109650701
2025-01-08 09:46:16.485809152,0.1218788,-0.017241310996400517
2025-01-08 09:46:16.495821056,0.12548268,-0.010969713101622636
2025-01-08 09:46:16.505816064,0.13972044,-0.004682197390652241
2025-01-08 09:46:16.515891968,0.15655506,0.0016159088522810657
2025-01-08 09:46:16.525947136,0.16815495,0.007919265582649312
2025-01-08 09:46:16.535855104,0.18275708,0.014222524554296671
2025-01-08 09:46:16.546127104,0.20244575,0.020520333887412714
2025-01-08 09:46:16.556057856,0.22808164,0.02680734264189281
2025-01-08 09:46:16.566108928,0.25453007,0.03307820539215697
2025-01-08 09:46:16.576045056,0.27830637,0.039327586799497855
2025-01-08 09:46:16.585864192,0.29613388,0.04555016617803321
2025-01-08 09:46:16.596054016,0.31009132,0.05174064205033487
2025-01-08 09:46:16.605865984,0.31244451,0.057893736688820835
2025-01-08 09:46:16.616327168,0.30689591,0.06400420063900442
2025-01-08 09:46:16.626108928,0.28571576,0.07006681722070839
2025-01-08 09:46:16.636149760,0.26167703,0.07607640700337348
2025-01-08 09:46:16.646138880,0.23852634,0.0820278322516051
2025-01-08 09:46:16.656100096,0.21642888,0.08791600133713348
2025-01-08 09:46:16.665931008,0.19496918,0.09373587311338626
2025-01-08 09:46:16.676104192,0.19394684,0.09948246124890263
2025-01-08 09:46:16.685929984,0.21021926,0.1051508385158544
2025-01-08 09:46:16.696109056,0.21576017,0.1107361410299787
2025-01-08 09:46:16.706136064,0.21950912,0.11623357243826092
2025-01-08 09:46:16.716087040,0.21608794,0.12163840805075744
2025-01-08 09:46:16.726155008,0.2044664,0.12694599891299063
2025-01-08 09:46:16.736155136,0.18160415,0.13215177581539922
2025-01-08 09:46:16.746035200,0.16247255,0.1372512532363821
2025-01-08 09:46:16.756153088,0.14934146,0.1422400332155258
2025-01-08 09:46:16.766123008,0.14259505,0.14711380915366912
2025-01-08 09:46:16.776173056,0.14534682,0.15186836953651625
2025-01-08 09:46:16.786149888,0.1461671,0.15649960157857962
2025-01-08 09:46:16.796098048,0.12798738,0.16100349478429365
2025-01-08 09:46:16.806201088,0.10525602,0.16537614442322005
2025-01-08 09:46:16.816382976,0.07547879,0.16961375491632907
2025-01-08 09:46:16.826050048,0.05393457,0.1737126431304244
2025-01-08 09:46:16.836167936,0.04491258,0.17766924157785172
2025-01-08 09:46:16.846106880,0.05455405,0.18148010151871563
2025-01-08 09:46:16.856152064,0.0483132,0.18514189596290875
2025-01-08 09:46:16.866249984,0.05203491,0.18865142256934664
2025-01-08 09:46:16.876261120,0.04963154,0.19200560643988546
2025-01-08 09:46:16.886214912,0.04433805,0.1952015028054913
2025-01-08 09:46:16.896251904,0.03911,0.19823629960232228
2025-01-08 09:46:16.906246912,0.0283826,0.2011073199354766
2025-01-08 09:46:16.916357120,0.01652926,0.20381202442825824
2025-01-08 09:46:16.926276096,0.0058158,0.2063480134549059
2025-01-08 09:46:16.936379904,0.00378942,0.2087130292548354
2025-01-08 09:46:16.946243072,1.544e-05,0.2109049579265421
2025-01-08 09:46:16.956361984,0.00934416,0.21292183129941544
2025-01-08 09:46:16.966268160,0.01456362,0.21476182868182195
2025-01-08 09:46:16.976574976,0.00979495,0.21642327848391713
2025-01-08 09:46:16.986262016,-0.00056684,0.2179046597137565
2025-01-08 09:46:16.996217856,-0.00602597,0.21920460334538358
2025-01-08 09:46:17.006326016,-0.00990337,0.22032189355767695
2025-01-08 09:46:17.016338176,-0.0137803,0.22125546884286093
2025-01-08 09:46:17.026572032,-0.01116216,0.2220044229836824
2025-01-08 09:46:17.036515840,0.00080937,0.22256800589837944
2025-01-08 09:46:17.046569984,0.01972634,0.2229456243526746
2025-01-08 09:46:17.056346880,0.03651565,0.22313684253814123
2025-01-08 09:46:17.066478080,0.04019433,0.223141382516408
2025-01-08 09:46:17.076633088,0.03448731,0.22295912452877614
