TIMESTAMP,ACCX,ACCX_filtered
2025-01-08 09:35:09.000572928,0.03678417,0.5741837188485021
2025-01-08 09:35:09.000595200,-0.02893972,0.5931309707562276
2025-01-08 09:35:09.015736064,-0.0888536,0.611980162287185
2025-01-08 09:35:09.031451904,-0.1528753,0.6307188309680059
2025-01-08 09:35:09.031474176,-0.21990961,0.649334556382372
2025-01-08 09:35:09.038906112,-0.28074628,0.6678149687076601
2025-01-08 09:35:09.102868992,-0.32452631,0.6861477572477243
2025-01-08 09:35:09.102885120,-0.36418611,0.7043206789558331
2025-01-08 09:35:09.102891008,-0.39923036,0.7223215669417475
2025-01-08 09:35:09.102895872,-0.42472208,0.7401383389569229
2025-01-08 09:35:09.102899968,-0.45077109,0.7577590058518081
2025-01-08 09:35:09.102905088,-0.49335253,0.7751716799992093
2025-01-08 09:35:09.120343808,-0.53706074,0.7923645836776917
2025-01-08 09:35:09.120357888,-0.5277456,0.8093260574089929
2025-01-08 09:35:09.160898816,-0.42916632,0.8260445682434371
2025-01-08 09:35:09.165134080,-0.25672054,0.842508717987346
2025-01-08 09:35:09.165144832,-0.06803048,0.8587072513664699
2025-01-08 09:35:09.165149952,0.10055691,0.8746290641194815
2025-01-08 09:35:09.170217984,0.24149179,0.8902632110156
2025-01-08 09:35:09.178742784,0.36720693,0.9055989137904478
2025-01-08 09:35:09.189136896,0.43903089,0.9206255689942862
2025-01-08 09:35:09.198738176,0.49114776,0.9353327557467976
2025-01-08 09:35:09.213459968,0.52796018,0.9497102433926548
2025-01-08 09:35:09.218743040,0.56132734,0.9637479990521376
2025-01-08 09:35:09.263966208,0.66882432,0.9774361950611393
2025-01-08 09:35:09.263987968,0.84561545,0.990765216294943
2025-01-08 09:35:09.263995904,1.00400376,1.0037256673702213
2025-01-08 09:35:09.264000768,1.07675576,1.0163083797197807
2025-01-08 09:35:09.270395136,1.08354425,1.0285044185346315
2025-01-08 09:35:09.279831040,1.17625988,1.0403050895680592
2025-01-08 09:35:09.290131200,1.40903878,1.0517019457964336
2025-01-08 09:35:09.304132864,1.70901155,1.062686793931589
2025-01-08 09:35:09.310176000,2.14426446,1.0732517007796893
2025-01-08 09:35:09.322670848,2.41330266,1.0833889994415888
2025-01-08 09:35:09.336301056,2.65151739,1.093091295349791
2025-01-08 09:35:09.340333824,2.86768866,1.1023514721372123
2025-01-08 09:35:09.349304064,3.25353146,1.1111626973330562
2025-01-08 09:35:09.359622912,3.63531113,1.119518427881212
2025-01-08 09:35:09.368922880,3.78716493,1.1274124154767122
2025-01-08 09:35:09.384838144,3.79233122,1.1348387117158802
2025-01-08 09:35:09.388967936,3.68901348,1.141791673055932
2025-01-08 09:35:09.407732992,3.42135715,1.1482659655799192
2025-01-08 09:35:09.436966912,3.06514835,1.1542565695630091
2025-01-08 09:35:09.436983040,2.71113873,1.1597587838362466
2025-01-08 09:35:09.436989952,2.35750055,1.1647682299440636
2025-01-08 09:35:09.494605056,2.00167155,1.1692808560919334
2025-01-08 09:35:09.494622976,1.69759274,1.1732929408807171
2025-01-08 09:35:09.494628864,1.45846558,1.1768010968243805
2025-01-08 09:35:09.494633984,1.20628583,1.1798022736479061
2025-01-08 09:35:09.494640128,1.03528357,1.1822937613623772
2025-01-08 09:35:09.494644992,1.04826117,1.1842731931143484
2025-01-08 09:35:09.499164160,1.25475979,1.1857385478067852
2025-01-08 09:35:09.509937920,1.54618537,1.1866881524889918
2025-01-08 09:35:09.519110912,1.60571277,1.187120684513124
2025-01-08 09:35:09.529200128,1.56633592,1.187035173455013
2025-01-08 09:35:09.539086080,1.61269999,1.1864310027972318
2025-01-08 09:35:09.549094912,1.61540866,1.1853079113724445
2025-01-08 09:35:09.560141056,1.65235925,1.1836659945652939
2025-01-08 09:35:09.569096960,1.74181116,1.181505705271219
2025-01-08 09:35:09.579091968,1.69094312,1.178827854610775
2025-01-08 09:35:09.591067904,1.54767048,1.1756336123981908
2025-01-08 09:35:09.599180032,1.36500514,1.1719245073630824
2025-01-08 09:35:09.609321984,1.0647676,1.1677024271244067
2025-01-08 09:35:09.619260928,0.87777865,1.1629696179159053
2025-01-08 09:35:09.629169920,0.96064001,1.1577286840624827
2025-01-08 09:35:09.640884992,1.04700387,1.1519825872071274
2025-01-08 09:35:09.649178880,0.98385566,1.1457346452881585
2025-01-08 09:35:09.659162880,0.93853682,1.138988531266764
2025-01-08 09:35:09.669140224,0.80281448,1.1317482716049847
2025-01-08 09:35:09.679153920,0.58081686,1.1240182444944449
2025-01-08 09:35:09.689313792,0.37301487,1.1158031778363542
2025-01-08 09:35:09.699296000,0.21793368,1.1071081469734427
2025-01-08 09:35:09.709433088,0.17134571,1.0979385721746988
2025-01-08 09:35:09.719219968,0.156367,1.0883002158739443
2025-01-08 09:35:09.729198848,0.21590999,1.0781991796634642
2025-01-08 09:35:09.739182848,0.35940364,1.0676419010440894
2025-01-08 09:35:09.749195008,0.44743022,1.0566351499333013
2025-01-08 09:35:09.759218944,0.39681342,1.0451860249331144
2025-01-08 09:35:09.769171968,0.34709722,1.03330194935966
2025-01-08 09:35:09.779223040,0.42953613,1.0209906670365774
2025-01-08 09:35:09.789246976,0.61270547,1.0082602378544885
2025-01-08 09:35:09.799257088,0.77495337,0.9951190330990063
2025-01-08 09:35:09.809197824,0.87559009,0.9815757305499043
2025-01-08 09:35:09.819233024,0.95210302,0.9676393093542349
2025-01-08 09:35:09.829299968,0.97581965,0.9533190446763652
2025-01-08 09:35:09.839181056,0.89857507,0.9386245021280573
2025-01-08 09:35:09.849498880,0.8017363,0.9235655319818928
2025-01-08 09:35:09.859404032,0.73604715,0.9081522631714951
2025-01-08 09:35:09.869285120,0.67320144,0.8923950970821797
2025-01-08 09:35:09.879316992,0.66740251,0.8763047011358044
2025-01-08 09:35:09.889462016,0.65647793,0.8598920021737636
2025-01-08 09:35:09.900329216,0.49885619,0.8431681796422176
2025-01-08 09:35:09.909312000,0.36185443,0.8261446585837998
2025-01-08 09:35:09.919353856,0.62618434,0.8088331024401972
2025-01-08 09:35:09.929321984,1.31770158,0.7912454056701475
2025-01-08 09:35:09.939369984,1.93834198,0.7733936861875294
2025-01-08 09:35:09.949423104,1.94373012,0.7552902776243808
2025-01-08 09:35:09.959476992,1.45660329,0.736947721423802
2025-01-08 09:35:09.969486848,1.07872474,0.7183787587678394
2025-01-08 09:35:09.979527936,0.88925517,0.6995963223455801
2025-01-08 09:35:09.989615872,0.77429217,0.6806135279668148
2025-01-08 09:35:09.999508992,0.72578579,0.6614436660267409
2025-01-08 09:35:10.009593856,0.79132771,0.6421001928273112
2025-01-08 09:35:10.019618048,0.93601269,0.6225967217609435
2025-01-08 09:35:10.029577984,1.04774094,0.6029470143624157
2025-01-08 09:35:10.040582912,1.07835865,0.583164971234885
2025-01-08 09:35:10.049596928,1.06360686,0.5632646228560774
2025-01-08 09:35:10.059789056,1.03676081,0.5432601202707797
2025-01-08 09:35:10.069630976,0.98914766,0.5231657256758846
2025-01-08 09:35:10.079643904,0.91882747,0.5029958029043071
2025-01-08 09:35:10.089682176,0.85735816,0.482764807814201
2025-01-08 09:35:10.099579136,0.82030869,0.46248727858996663
2025-01-08 09:35:10.109632000,0.78888041,0.44217782596164085
2025-01-08 09:35:10.119620096,0.7495091,0.42185112334931196
2025-01-08 09:35:10.129544960,0.7025333,0.40152189693929136
2025-01-08 09:35:10.139815168,0.6532988,0.38120491569882575
2025-01-08 09:35:10.149629952,0.59780842,0.3609149813362002
2025-01-08 09:35:10.159694848,0.52282667,0.3406669182131339
2025-01-08 09:35:10.169481984,0.43263185,0.32047556321642356
2025-01-08 09:35:10.179514880,0.32417887,0.30035575559583194
2025-01-08 09:35:10.189831936,0.20928949,0.28032232677526353
2025-01-08 09:35:10.199759872,0.09628266,0.26039009014429865
2025-01-08 09:35:10.210380032,-0.00830442,0.24057383083719397
2025-01-08 09:35:10.219939072,-0.12266064,0.22088829550647818
2025-01-08 09:35:10.229718016,-0.26161611,0.20134818209829647
2025-01-08 09:35:10.239779072,-0.41762102,0.18196812963666503
2025-01-08 09:35:10.249798144,-0.57209438,0.16276270802381407
2025-01-08 09:35:10.259864064,-0.70647591,0.14374640786380075
2025-01-08 09:35:10.269876992,-0.79619294,0.12493363031656933
2025-01-08 09:35:10.279767040,-0.83072609,0.1063386769896342
2025-01-08 09:35:10.289652992,-0.83587408,0.08797573987455073
2025-01-08 09:35:10.299705856,-0.83737618,0.06985889133531772
2025-01-08 09:35:10.309683200,-0.85015494,0.05200207415584237
2025-01-08 09:35:10.319788032,-0.87092686,0.03441909165356421
2025-01-08 09:35:10.329657088,-0.88661033,0.01712359786630775
2025-01-08 09:35:10.339734016,-0.88269562,0.00012908781939451478
2025-01-08 09:35:10.349577984,-0.87119746,-0.01655111211999284
2025-01-08 09:35:10.360286976,-0.89295238,-0.03290385379425872
2025-01-08 09:35:10.369876992,-0.9491514,-0.04891617670575621
2025-01-08 09:35:10.379825152,-0.99305195,-0.06457531735923475
2025-01-08 09:35:10.389811968,-0.99739426,-0.07986871848960175
2025-01-08 09:35:10.399815168,-0.94888884,-0.09478403816829428
2025-01-08 09:35:10.409858048,-0.85862684,-0.10930915878162754
2025-01-08 09:35:10.419979008,-0.74658817,-0.1234321958745713
2025-01-08 09:35:10.429976832,-0.63201886,-0.1371415068534766
2025-01-08 09:35:10.439841024,-0.50998193,-0.1504256995413725
2025-01-08 09:35:10.449806848,-0.3451075,-0.16327364057953492
2025-01-08 09:35:10.459842816,-0.11587375,-0.17567446366913647
2025-01-08 09:35:10.469888000,0.16833675,-0.18761757764687312
2025-01-08 09:35:10.479890176,0.45408881,-0.19909267438858946
2025-01-08 09:35:10.489895168,0.607391,-0.21008973653500956
2025-01-08 09:35:10.499883776,0.48843455,-0.22059904503381506
2025-01-08 09:35:10.509861120,0.18538785,-0.23061118649242746
2025-01-08 09:35:10.521428224,-0.08173943,-0.24011706033596245
2025-01-08 09:35:10.529933824,-0.24886119,-0.24910788576496623
2025-01-08 09:35:10.539913984,-0.30646437,-0.2575752085076709
2025-01-08 09:35:10.549901056,-0.29628795,-0.2655109073616366
2025-01-08 09:35:10.559952128,-0.28601676,-0.2729072005197939
2025-01-08 09:35:10.569922816,-0.30278933,-0.27975665167604064
2025-01-08 09:35:10.579971072,-0.33088183,-0.28605217590569554
2025-01-08 09:35:10.589984768,-0.34688908,-0.2917870453162584
2025-01-08 09:35:10.599968000,-0.33250654,-0.29695489446408896
2025-01-08 09:35:10.609937920,-0.27801633,-0.3015497255327629
2025-01-08 09:35:10.619951104,-0.20225042,-0.30556591326903576
2025-01-08 09:35:10.630034944,-0.15602177,-0.30899820967250147
2025-01-08 09:35:10.639933184,-0.18147892,-0.31184174843520557
2025-01-08 09:35:10.649892096,-0.26970679,-0.31409204912763794
2025-01-08 09:35:10.662144000,-0.3685903,-0.3157450211277099
2025-01-08 09:35:10.669961984,-0.42617697,-0.3167969672894881
2025-01-08 09:35:10.679963136,-0.42919475,-0.31724458734864464
2025-01-08 09:35:10.689882880,-0.40370953,-0.3170849810617577
2025-01-08 09:35:10.699973120,-0.38017845,-0.31631565107678467
2025-01-08 09:35:10.709995008,-0.37648535,-0.3149345055322096
2025-01-08 09:35:10.720036096,-0.38791281,-0.3129398603825637
2025-01-08 09:35:10.730113024,-0.39334732,-0.3103304414481974
2025-01-08 09:35:10.740055040,-0.37223554,-0.30710538618737937
2025-01-08 09:35:10.750089984,-0.32747078,-0.3032642451889926
2025-01-08 09:35:10.760047872,-0.26765627,-0.29880698338428663
2025-01-08 09:35:10.770145792,-0.19039536,-0.29373398097634595
2025-01-08 09:35:10.779997952,-0.09367001,-0.2880460340861309
2025-01-08 09:35:10.790027008,0.01281458,-0.2817443551141441
2025-01-08 09:35:10.800049152,0.12220299,-0.27483057281697837
2025-01-08 09:35:10.810110208,0.21696377,-0.26730673209819544
2025-01-08 09:35:10.820295168,0.28518122,-0.2591752935131983
2025-01-08 09:35:10.830555904,0.3224169,-0.25043913248794625
2025-01-08 09:35:10.840083968,0.32538766,-0.24110153825157657
2025-01-08 09:35:10.850127104,0.30452555,-0.23116621248318986
2025-01-08 09:35:10.860176128,0.28246611,-0.22063726767326558
2025-01-08 09:35:10.870148864,0.27479833,-0.20951922520036975
2025-01-08 09:35:10.880124160,0.27581757,-0.197817013124025
2025-01-08 09:35:10.890340096,0.28044856,-0.18553596369481026
2025-01-08 09:35:10.900180992,0.28877938,-0.17268181058296161
2025-01-08 09:35:10.910160128,0.31628644,-0.159260685826943
2025-01-08 09:35:10.920158976,0.37751055,-0.14527911650366085
2025-01-08 09:35:10.930844160,0.4778142,-0.13074402112218958
2025-01-08 09:35:10.940228096,0.58156312,-0.11566270574307477
2025-01-08 09:35:10.950210048,0.69597316,-0.10004285982548147
2025-01-08 09:35:10.960247040,0.84077013,-0.08389255180464254
2025-01-08 09:35:10.970208768,0.96598792,-0.06722022440226214
2025-01-08 09:35:10.980222976,0.99114394,-0.05003468967271992
2025-01-08 09:35:10.990214144,0.91263604,-0.032345123788107215
2025-01-08 09:35:11.000217088,0.78753841,-0.01416106156532486
2025-01-08 09:35:11.010227968,0.68298709,0.004507609261355322
2025-01-08 09:35:11.020230912,0.63784164,0.02365065401866374
2025-01-08 09:35:11.030260992,0.66168058,0.043257497319873335
2025-01-08 09:35:11.040551936,0.74343973,0.06331722953354478
2025-01-08 09:35:11.050426112,0.83289868,0.08381861349135322
2025-01-08 09:35:11.060466944,0.87372088,0.10475009143068516
2025-01-08 09:35:11.070456064,0.7661252,0.1260997921675324
2025-01-08 09:35:11.080399872,0.53901255,0.14785553849503966
2025-01-08 09:35:11.090424064,0.364786,0.17000485480289634
2025-01-08 09:35:11.100343040,0.37148145,0.192534974912602
2025-01-08 09:35:11.110404096,0.39516371,0.21543285012347665
2025-01-08 09:35:11.120267008,0.21635935,0.23868515746413527
2025-01-08 09:35:11.130321920,-0.07762257,0.26227830814398845
2025-01-08 09:35:11.140496128,-0.24764875,0.28619845619919115
2025-01-08 09:35:11.150377984,-0.17422949,0.31043150732731134
2025-01-08 09:35:11.160402176,0.02662116,0.3349631279048565
2025-01-08 09:35:11.170351872,0.19098118,0.3597787541816556
2025-01-08 09:35:11.180356096,0.24665181,0.38486360164596556
2025-01-08 09:35:11.190406912,0.18058792,0.41020267455404336
2025-01-08 09:35:11.200400128,0.04893237,0.43578077561780154
2025-01-08 09:35:11.210417152,-0.07110465,0.461582515844049
2025-01-08 09:35:11.220439808,-0.14222184,0.4875923245186985
2025-01-08 09:35:11.230444800,-0.16467589,0.5137944593292229
2025-01-08 09:35:11.240935168,-0.16509792,0.5401730166185297
2025-01-08 09:35:11.250407936,-0.1716494,0.5667119417633241
2025-01-08 09:35:11.260418816,-0.19157693,0.5933950396699442
2025-01-08 09:35:11.270489088,-0.19128749,0.620205985380549
2025-01-08 09:35:11.280399104,-0.13633981,0.6471283347824655
2025-01-08 09:35:11.290466048,-0.03117219,0.6741455354134165
2025-01-08 09:35:11.300378112,0.08437565,0.701240937355277
2025-01-08 09:35:11.310460928,0.17461428,0.7283978042089354
2025-01-08 09:35:11.320379904,0.2545718,0.7555993241427761
2025-01-08 09:35:11.330456064,0.36135572,0.7828286210072355
2025-01-08 09:35:11.340430848,0.49838978,0.8100687655078307
2025-01-08 09:35:11.350401024,0.61612046,0.8373027864290171
2025-01-08 09:35:11.360486144,0.65648609,0.8645136819011835
2025-01-08 09:35:11.372200960,0.60413915,0.8916844307030461
2025-01-08 09:35:11.380441856,0.52588052,0.9187980035917003
2025-01-08 09:35:11.390511104,0.51933515,0.9458373746525232
2025-01-08 09:35:11.400594944,0.60329539,0.9727855326611294
2025-01-08 09:35:11.410548992,0.73387396,0.9996254924495547
2025-01-08 09:35:11.420950016,0.85461581,1.026340306268834
2025-01-08 09:35:11.430720000,0.95774055,1.052913075140128
2025-01-08 09:35:11.440717824,1.08456421,1.079326960186577
2025-01-08 09:35:11.450653952,1.24603772,1.1055651939380333
2025-01-08 09:35:11.460547072,1.38548732,1.1316110916008686
2025-01-08 09:35:11.470824960,1.44992709,1.1574480622850485
2025-01-08 09:35:11.480593920,1.49790287,1.1830596201806998
2025-01-08 09:35:11.490597120,1.63813305,1.2084293956764243
2025-01-08 09:35:11.500700928,1.84492898,1.2335411464116406
2025-01-08 09:35:11.510638080,1.97651601,1.2583787682552925
2025-01-08 09:35:11.520626176,2.0239706,1.282926306203279
2025-01-08 09:35:11.530608896,2.05252314,1.3071679651870485
2025-01-08 09:35:11.540560896,2.0681541,1.331088120785822
2025-01-08 09:35:11.551456000,2.00776863,1.3546713298349955
2025-01-08 09:35:11.560798976,1.9235065,1.377902340923328
2025-01-08 09:35:11.570627072,1.84922075,1.4007661047715947
2025-01-08 09:35:11.580552192,1.81708288,1.4232477844854692
2025-01-08 09:35:11.590620160,1.75167274,1.4453327656754689
2025-01-08 09:35:11.600680192,1.55971265,1.4670066664369017
2025-01-08 09:35:11.610660096,1.37769175,1.4882553471828293
2025-01-08 09:35:11.620662016,1.25427437,1.5090649203231752
2025-01-08 09:35:11.630690048,1.09675503,1.529421759783195
2025-01-08 09:35:11.640721920,0.87015033,1.549312510354643
2025-01-08 09:35:11.650929920,0.53871506,1.5687240968730816
2025-01-08 09:35:11.660936192,0.09982854,1.5876437332148923
2025-01-08 09:35:11.670711040,-0.4133203,1.6060589311076714
2025-01-08 09:35:11.680710144,-0.92951447,1.6239575087478246
2025-01-08 09:35:11.690726144,-1.30394578,1.6413275992192986
2025-01-08 09:35:11.700728064,-1.4582696,1.6581576587075233
2025-01-08 09:35:11.710745088,-1.50648141,1.6744364745027882
2025-01-08 09:35:11.720751104,-1.58539248,1.690153172787406
2025-01-08 09:35:11.730742016,-1.55971432,1.7052972262011725
2025-01-08 09:35:11.740752896,-1.34565902,1.7198584611797838
2025-01-08 09:35:11.750781952,-1.10755396,1.7338270650610261
2025-01-08 09:35:11.760852224,-0.92053127,1.7471935929537035
2025-01-08 09:35:11.770787072,-0.64958966,1.759948974364456
2025-01-08 09:35:11.780796160,-0.34510934,1.7720845195777581
2025-01-08 09:35:11.790807040,-0.10218853,1.7835919257845751
2025-01-08 09:35:11.800837120,0.04544562,1.794463282955327
2025-01-08 09:35:11.810853888,0.31271166,1.8046910794529767
2025-01-08 09:35:11.820889856,0.60768867,1.814268207382246
2025-01-08 09:35:11.830849024,0.94894898,1.8231879676711482
2025-01-08 09:35:11.840878080,1.39378846,1.831444074881197
2025-01-08 09:35:11.850903040,2.01250505,1.8390306617428507
2025-01-08 09:35:11.861052928,3.03864694,1.8459422834129464
2025-01-08 09:35:11.870989056,4.25811291,1.8521739214510446
2025-01-08 09:35:11.880992768,5.11090183,1.8577209875118357
2025-01-08 09:35:11.891653120,5.57752562,1.8625793267509239
2025-01-08 09:35:11.901017856,6.07509232,1.866745220941521
2025-01-08 09:35:11.911057920,6.43229532,1.8702153912997808
2025-01-08 09:35:11.920979968,6.58454418,1.8729870010166991
2025-01-08 09:35:11.931457024,6.69477892,1.8750576574947146
2025-01-08 09:35:11.941478912,6.36522627,1.8764254142873487
2025-01-08 09:35:11.951216896,5.79050112,1.8770887727404268
2025-01-08 09:35:11.961918976,5.19235134,1.8770466833336372
2025-01-08 09:35:11.970984960,4.57636738,1.8762985467213735
2025-01-08 09:35:11.980966144,3.97693872,1.8748442144720483
2025-01-08 09:35:11.990989824,3.53800917,1.8726839895052303
2025-01-08 09:35:12.000907776,3.23561406,1.8698186262262158
2025-01-08 09:35:12.011080960,3.18375492,1.8662493303578107
2025-01-08 09:35:12.020937984,3.32641149,1.8619777584693447
2025-01-08 09:35:12.030988032,3.24100971,1.857006017203119
2025-01-08 09:35:12.040962816,3.25022554,1.8513366621987368
2025-01-08 09:35:12.050992128,3.35169363,1.844972696715926
2025-01-08 09:35:12.061028864,3.33996248,1.8379175699567225
2025-01-08 09:35:12.071068928,3.31947136,1.8301751750880573
2025-01-08 09:35:12.081175040,3.38851118,1.8217498469660123
2025-01-08 09:35:12.091067136,3.42715907,1.8126463595632125
2025-01-08 09:35:12.101057024,3.25180221,1.8028699231010392
2025-01-08 09:35:12.111046912,2.83414507,1.7924261808885293
2025-01-08 09:35:12.121076992,2.29128647,1.7813212058700576
2025-01-08 09:35:12.131105792,1.84712863,1.7695614968840834
2025-01-08 09:35:12.141040128,1.59323907,1.7571539746354454
2025-01-08 09:35:12.151102976,1.44541109,1.744105977383894
2025-01-08 09:35:12.161108992,1.33892858,1.7304252563517388
2025-01-08 09:35:12.171177984,1.22786927,1.7161199708536916
2025-01-08 09:35:12.181195008,1.08903456,1.7011986831521642
2025-01-08 09:35:12.191134976,0.92370611,1.6856703530414976
2025-01-08 09:35:12.201131008,0.68056357,1.669544332164745
2025-01-08 09:35:12.211097088,0.37026414,1.6528303580668626
2025-01-08 09:35:12.221100032,0.19816512,1.6355385479883053
2025-01-08 09:35:12.231086080,0.27541223,1.617679392403231
2025-01-08 09:35:12.241120000,0.39283586,1.5992637483066756
2025-01-08 09:35:12.251100160,0.39294431,1.5803028322552484
2025-01-08 09:35:12.261154816,0.37926376,1.560808213166052
2025-01-08 09:35:12.271457792,0.39506343,1.5407918048787188
2025-01-08 09:35:12.281150208,0.3369824,1.520265858485596
2025-01-08 09:35:12.291191040,0.15888068,1.499242954435285
2025-01-08 09:35:12.301197056,-0.011464,1.4777359944148987
2025-01-08 09:35:12.311161088,-0.03211465,1.4557581930165409
2025-01-08 09:35:12.321103104,0.12671676,1.4333230691936723
2025-01-08 09:35:12.331213056,0.42351225,1.4104444375131624
2025-01-08 09:35:12.341231104,0.69360852,1.3871363992089736
2025-01-08 09:35:12.351250944,0.76528078,1.3634133330435576
2025-01-08 09:35:12.361224960,0.6691196,1.3392898859831706
2025-01-08 09:35:12.371427072,0.58995163,1.3147809636934509
2025-01-08 09:35:12.381277952,0.65462476,1.289901720861718
2025-01-08 09:35:12.391232000,0.74132997,1.26466755135257
2025-01-08 09:35:12.401266944,0.68200308,1.2390940782034745
2025-01-08 09:35:12.411288064,0.57611954,1.2131971434671531
2025-01-08 09:35:12.421300992,0.47063035,1.1869927979076649
2025-01-08 09:35:12.431292160,0.24619293,1.1604972905571926
2025-01-08 09:35:12.441255936,0.03287196,1.133727058140629
2025-01-08 09:35:12.451267072,0.15829635,1.1066987143751514
2025-01-08 09:35:12.461265920,0.85377705,1.0794290391520562
2025-01-08 09:35:12.471339008,1.77603054,1.0519349676082002
2025-01-08 09:35:12.481401088,1.93462789,1.0242335790944745
2025-01-08 09:35:12.491323904,1.2623322,0.9963420860488041
2025-01-08 09:35:12.501233152,0.75537199,0.968277822781224
2025-01-08 09:35:12.511646976,0.6574164,0.9400582341786468
2025-01-08 09:35:12.521341184,0.74795544,0.9117008643369892
2025-01-08 09:35:12.531374080,0.96535873,0.8832233451283633
2025-01-08 09:35:12.541358848,1.16651821,0.8546433847110928
2025-01-08 09:35:12.551336960,1.20981598,0.825978755990341
2025-01-08 09:35:12.561331968,1.19973361,0.7972472850371671
2025-01-08 09:35:12.571382016,1.24041796,0.7684668394738661
2025-01-08 09:35:12.581475072,1.28785121,0.7396553168334475
2025-01-08 09:35:12.591352832,1.25623918,0.710830632901137
2025-01-08 09:35:12.601391104,1.11816096,0.6820107100457912
2025-01-08 09:35:12.611424000,0.96185207,0.6532134655491085
2025-01-08 09:35:12.621391104,0.8486132,0.6244567999405358
2025-01-08 09:35:12.631367936,0.77097017,0.5957585853457419
2025-01-08 09:35:12.641453056,0.70294732,0.5671366538565303
2025-01-08 09:35:12.651436032,0.64718318,0.538608785930038
2025-01-08 09:35:12.661359104,0.61475205,0.5101926988250479
2025-01-08 09:35:12.671845888,0.5812853,0.48190603508320023
2025-01-08 09:35:12.682573056,0.51907682,0.4537663510628704
2025-01-08 09:35:12.691639040,0.42417288,0.4257911055334302
2025-01-08 09:35:12.701580032,0.32146162,0.3979976483375599
2025-01-08 09:35:12.711558144,0.23196638,0.3704032091292355
2025-01-08 09:35:12.721611008,0.15935326,0.34302488619495686
2025-01-08 09:35:12.731601920,0.09688097,0.315879635365715
2025-01-08 09:35:12.741652992,0.03093934,0.28898425902713676
2025-01-08 09:35:12.751517952,-0.05031121,0.26235539523517026
2025-01-08 09:35:12.761497088,-0.15437353,0.23600950694459522
2025-01-08 09:35:12.771395072,-0.26643765,0.2099628713575609
2025-01-08 09:35:12.781476096,-0.37206572,0.18423156939927463
2025-01-08 09:35:12.791478016,-0.46634513,0.15883147532785566
2025-01-08 09:35:12.801529856,-0.55181235,0.13377824648528877
2025-01-08 09:35:12.811587072,-0.62575144,0.10908731319630122
2025-01-08 09:35:12.821524992,-0.69156921,0.08477386882188206
2025-01-08 09:35:12.831547136,-0.74843681,0.06085285997405232
2025-01-08 09:35:12.841420800,-0.80115902,0.03733897689837996
2025-01-08 09:35:12.851421184,-0.83482403,0.014246644030612056
2025-01-08 09:35:12.861432064,-0.8440128,-0.008409989266327658
2025-01-08 09:35:12.871431168,-0.82950538,-0.030617057778851278
2025-01-08 09:35:12.881498112,-0.81691253,-0.05236098932674737
2025-01-08 09:35:12.892563968,-0.81280798,-0.07362851344889355
2025-01-08 09:35:12.901541888,-0.81087971,-0.09440666988492875
2025-01-08 09:35:12.911333120,-0.81566471,-0.11468281684732586
2025-01-08 09:35:12.921576960,-0.82012939,-0.13444463907843723
2025-01-08 09:35:12.931622912,-0.82179356,-0.15368015568725107
2025-01-08 09:35:12.941637120,-0.82074994,-0.17237772776074786
2025-01-08 09:35:12.951656960,-0.80957413,-0.19052606574489928
2025-01-08 09:35:12.961679104,-0.74490768,-0.20811423659052222
2025-01-08 09:35:12.971613952,-0.5859282,-0.22513167065936054
2025-01-08 09:35:12.981650176,-0.33794808,-0.24156816838593584
2025-01-08 09:35:12.991597056,-0.00412148,-0.25741390669087866
2025-01-08 09:35:13.001671168,0.42073911,-0.27265944514163265
2025-01-08 09:35:13.011688960,0.84042919,-0.28729573185658425
2025-01-08 09:35:13.021716224,0.96229744,-0.3013141091488704
2025-01-08 09:35:13.031670016,0.63889396,-0.3147063189062819
2025-01-08 09:35:13.041708032,0.25260407,-0.32746450770386915
2025-01-08 09:35:13.051714816,0.02292466,-0.3395812316460447
2025-01-08 09:35:13.061745920,-0.09238088,-0.3510494609351636
2025-01-08 09:35:13.071700224,-0.16469193,-0.3618625841637494
2025-01-08 09:35:13.081715968,-0.24619728,-0.3720144123277286
2025-01-08 09:35:13.091710208,-0.3457495,-0.3814991825582292
2025-01-08 09:35:13.101784832,-0.43479049,-0.39031156156969
2025-01-08 09:35:13.111702016,-0.48384088,-0.39844664882222647
2025-01-08 09:35:13.121676032,-0.48303634,-0.40589997939639594
2025-01-08 09:35:13.133843968,-0.42755306,-0.41266752657870054
2025-01-08 09:35:13.141794816,-0.34470874,-0.4187457041563658
2025-01-08 09:35:13.151757056,-0.27223247,-0.4241313684201353
2025-01-08 09:35:13.161658880,-0.2395649,-0.42882181987401863
2025-01-08 09:35:13.171638016,-0.25340372,-0.43281480465113065
2025-01-08 09:35:13.181783808,-0.29626453,-0.4361085156349659
2025-01-08 09:35:13.191799040,-0.34118152,-0.4387015932856468
2025-01-08 09:35:13.201805056,-0.37347752,-0.4405931261708864
2025-01-08 09:35:13.211833088,-0.39308959,-0.44178265120161814
2025-01-08 09:35:13.221847040,-0.39927101,-0.44227015357242844
2025-01-08 09:35:13.231816960,-0.3964321,-0.44205606640714135
2025-01-08 09:35:13.241765888,-0.38970423,-0.4411412701101046
2025-01-08 09:35:13.251770112,-0.3655901,-0.4395270914239161
2025-01-08 09:35:13.261820160,-0.31678361,-0.4372153021945378
2025-01-08 09:35:13.271857920,-0.25805205,-0.43420811784494073
2025-01-08 09:35:13.281817856,-0.20570403,-0.43050819555861425
2025-01-08 09:35:13.294656000,-0.16569406,-0.4261186321744765
2025-01-08 09:35:13.301850112,-0.13425434,-0.4210429617949147
2025-01-08 09:35:13.312091136,-0.09184176,-0.4152851531088705
2025-01-08 09:35:13.321996032,-0.03944969,-0.40884960643208884
2025-01-08 09:35:13.331883008,0.0115298,-0.40174115046682307
2025-01-08 09:35:13.341944832,0.06166083,-0.3939650387834909
2025-01-08 09:35:13.351985920,0.12143844,-0.38552694602694887
2025-01-08 09:35:13.361946112,0.1874007,-0.37643296385024666
2025-01-08 09:35:13.372144896,0.23889482,-0.3666895965788944
2025-01-08 09:35:13.381916928,0.25095236,-0.3563037566088606
2025-01-08 09:35:13.391924992,0.23732734,-0.3452827595416953
2025-01-08 09:35:13.401933824,0.2488628,-0.33363431906033875
2025-01-08 09:35:13.411972096,0.31012648,-0.3213665415493558
2025-01-08 09:35:13.422024960,0.39173383,-0.308487920463501
2025-01-08 09:35:13.432135168,0.44291997,-0.29500733044867905
2025-01-08 09:35:13.441946880,0.4471435,-0.2809340212195364
2025-01-08 09:35:13.452044032,0.44886518,-0.2662776111980716
2025-01-08 09:35:13.461982976,0.46751857,-0.25104808091780884
2025-01-08 09:35:13.471998976,0.4998942,-0.2352557661982329
2025-01-08 09:35:13.482024960,0.53019238,-0.2189113510943324
2025-01-08 09:35:13.492024064,0.54726577,-0.20202586062623948
2025-01-08 09:35:13.502108160,0.5642131,-0.18461065329409776
2025-01-08 09:35:13.512134144,0.58287185,-0.16667741338343206
2025-01-08 09:35:13.522629888,0.60258126,-0.1482381430664185
2025-01-08 09:35:13.532154112,0.6142543,-0.1293051543045866
2025-01-08 09:35:13.542131968,0.61319381,-0.10989106055862072
2025-01-08 09:35:13.552207104,0.61223948,-0.0900087683110261
2025-01-08 09:35:13.562128128,0.61093217,-0.06967146840757266
2025-01-08 09:35:13.572137984,0.56388581,-0.048892627223513736
2025-01-08 09:35:13.581984000,0.48725694,-0.027685977660706882
2025-01-08 09:35:13.592035072,0.4584502,-0.006065509981856783
2025-01-08 09:35:13.602091008,0.50718498,0.015954537511795815
2025-01-08 09:35:13.612078848,0.57528114,0.03835968795291891
2025-01-08 09:35:13.622169856,0.60198945,0.06113523552416139
2025-01-08 09:35:13.632195840,0.56501961,0.08426625521125425
2025-01-08 09:35:13.642162176,0.46071631,0.10773761268646474
2025-01-08 09:35:13.652108032,0.34000486,0.1315339743156488
2025-01-08 09:35:13.662130176,0.33391526,0.1556398172820785
2025-01-08 09:35:13.672137984,0.42046216,0.18003943982014706
2025-01-08 09:35:13.682182144,0.36999083,0.20471697155200172
2025-01-08 09:35:13.692186112,0.20111263,0.22965638392008716
2025-01-08 09:35:13.702177024,0.08039209,0.2548415007085368
2025-01-08 09:35:13.712150016,0.04306033,0.28025600864630024
2025-01-08 09:35:13.722172928,0.07838249,0.30588346808484784
2025-01-08 09:35:13.732215040,0.08999726,0.3317073237432644
2025-01-08 09:35:13.742135040,-0.00996575,0.35771091551350315
2025-01-08 09:35:13.752204800,-0.15828609,0.38387748931855015
2025-01-08 09:35:13.762181888,-0.27624306,0.41019020801621875
2025-01-08 09:35:13.772211968,-0.31296405,0.4366321623412888
2025-01-08 09:35:13.782372096,-0.27468309,0.46318638187867656
2025-01-08 09:35:13.792322048,-0.21301973,0.4898358460603294
2025-01-08 09:35:13.802056960,-0.16636312,0.5165634951785267
2025-01-08 09:35:13.812241920,-0.14340246,0.5433522414082728
2025-01-08 09:35:13.822235136,-0.11817724,0.5701849798314806
2025-01-08 09:35:13.832308992,-0.06103134,0.5970445994556504
2025-01-08 09:35:13.842206976,0.02103007,0.6239139942197679
2025-01-08 09:35:13.852260096,0.1009056,0.650776073980173
2025-01-08 09:35:13.862265088,0.14734983,0.677613775469166
2025-01-08 09:35:13.872286976,0.15588677,0.7044100732191674
2025-01-08 09:35:13.882270976,0.15981221,0.731147990445269
2025-01-08 09:35:13.892220928,0.17450213,0.7578106098790588
2025-01-08 09:35:13.902245888,0.19977182,0.7843810845466632
2025-01-08 09:35:13.912481024,0.22116727,0.8108426484839786
2025-01-08 09:35:13.922365952,0.23724288,0.8371786273821358
2025-01-08 09:35:13.935585024,0.2579931,0.8633724491563
2025-01-08 09:35:13.942850048,0.28681403,0.8894076544309701
2025-01-08 09:35:13.952464128,0.33244991,0.9152679069350065
2025-01-08 09:35:13.962349056,0.39479917,0.9409370037997103
2025-01-08 09:35:13.972363008,0.47819769,0.9663988857533257
2025-01-08 09:35:13.982452992,0.62248641,0.9916376472054458
2025-01-08 09:35:13.992408064,0.82744884,1.016637546214882
2025-01-08 09:35:14.002374912,1.05195284,1.0413830143346352
2025-01-08 09:35:14.012502016,1.24309397,1.0658586663277232
2025-01-08 09:35:14.022393088,1.35726976,1.090049309747705
2025-01-08 09:35:14.032421120,1.42423606,1.1139399543778505
2025-01-08 09:35:14.042479104,1.55396438,1.1375158215230041
2025-01-08 09:35:14.052422912,1.66542292,1.1607623531483202
2025-01-08 09:35:14.062351872,1.62533021,1.1836652208591418
2025-01-08 09:35:14.072452096,1.52269053,1.20621033471642
2025-01-08 09:35:14.082420992,1.48529959,1.2283838518822068
2025-01-08 09:35:14.092444928,1.51060128,1.2501721850898546
2025-01-08 09:35:14.102395904,1.47699237,1.2715620109337054
2025-01-08 09:35:14.112420096,1.36491966,1.2925402779731752
2025-01-08 09:35:14.122523904,1.29125142,1.3130942146462747
2025-01-08 09:35:14.132492032,1.27379107,1.3332113369877454
2025-01-08 09:35:14.142756864,1.26755905,1.352879456147138
2025-01-08 09:35:14.152518912,1.317662,1.372086685702294
2025-01-08 09:35:14.162480128,1.40597045,1.3908214487638377
2025-01-08 09:35:14.172472064,1.41468716,1.409072484866455
2025-01-08 09:35:14.182481920,1.25687385,1.4268288566428524
2025-01-08 09:35:14.192552192,0.93102175,1.4440799562764768
2025-01-08 09:35:14.202501120,0.60737801,1.460815511729217
2025-01-08 09:35:14.212536064,0.25855708,1.4770255927404627
2025-01-08 09:35:14.222592000,-0.27828854,1.4927006165940717
2025-01-08 09:35:14.232517888,-0.94913805,1.5078313536499426
2025-01-08 09:35:14.242489088,-1.46504188,1.522408932637068
2025-01-08 09:35:14.252656896,-1.5035193,1.5364248457051017
2025-01-08 09:35:14.262548992,-1.33394933,1.549870953231639
2025-01-08 09:35:14.272540928,-1.3896265,1.5627394883825914
2025-01-08 09:35:14.282587904,-1.559672,1.5750230614231862
2025-01-08 09:35:14.292601088,-1.62561095,1.586714663777313
2025-01-08 09:35:14.302607104,-1.57795632,1.597807671833104
2025-01-08 09:35:14.312771072,-1.48690915,1.608295850492801
2025-01-08 09:35:14.322760960,-1.20969367,1.618173356465153
2025-01-08 09:35:14.332814848,-0.78869963,1.627434741298748
2025-01-08 09:35:14.342807040,-0.42851037,1.6360749541548694
2025-01-08 09:35:14.352730112,-0.017851,1.6440893443186337
2025-01-08 09:35:14.362701056,0.43757147,1.6514736634473535
2025-01-08 09:35:14.372644864,0.93622607,1.6582240675552407
2025-01-08 09:35:14.384370944,1.52654362,1.6643371187337395
2025-01-08 09:35:14.392656128,2.26900554,1.6698097866069628
2025-01-08 09:35:14.403213056,3.12663794,1.6746394495218762
2025-01-08 09:35:14.412760064,4.06667089,1.6788238954730546
2025-01-08 09:35:14.422795008,4.91936207,1.6823613227620102
2025-01-08 09:35:14.432632832,5.44890738,1.685250340391265
2025-01-08 09:35:14.442647808,5.97187614,1.6874899681935256
2025-01-08 09:35:14.452764160,6.41903543,1.689079636696475
2025-01-08 09:35:14.462774016,6.5518012,1.6900191867238874
2025-01-08 09:35:14.472773120,6.54290438,1.6903088687339358
2025-01-08 09:35:14.482958080,6.17075872,1.6899493418957319
2025-01-08 09:35:14.493046016,5.65592289,1.6889416729053148
2025-01-08 09:35:14.502970880,5.1510067,1.687287334542471
2025-01-08 09:35:14.512835072,4.64079714,1.6849882039699282
2025-01-08 09:35:14.522699008,4.2650485,1.682046560776649
2025-01-08 09:35:14.532731136,3.91653872,1.6784650847671
2025-01-08 09:35:14.542776064,3.63309288,1.6742468534985349
2025-01-08 09:35:14.552763904,3.17045593,1.6693953395685008
2025-01-08 09:35:14.562668032,2.78405786,1.663914407654933
2025-01-08 09:35:14.572711936,2.79575872,1.6578083113113478
2025-01-08 09:35:14.582802176,2.68474793,1.6510816895198184
2025-01-08 09:35:14.592818944,2.48110366,1.6437395630045526
2025-01-08 09:35:14.602846976,2.41330719,1.6357873303090547
2025-01-08 09:35:14.612828928,2.29228759,1.6272307636399914
2025-01-08 09:35:14.622849024,2.2850287,1.6180760044810363
2025-01-08 09:35:14.632827904,2.44227505,1.6083295589800986
2025-01-08 09:35:14.642817024,2.34074521,1.5979982931134942
2025-01-08 09:35:14.652856064,1.97826409,1.5870894276307446
2025-01-08 09:35:14.662960896,1.71523774,1.5756105327838255
2025-01-08 09:35:14.672933120,1.58953595,1.563569522844824
2025-01-08 09:35:14.682888960,1.48254824,1.5509746504160768
2025-01-08 09:35:14.692956928,1.27741039,1.5378345005370102
2025-01-08 09:35:14.702891008,1.01497054,1.5241579845919944
2025-01-08 09:35:14.712958976,0.7770462,1.5099543340236747
2025-01-08 09:35:14.722886912,0.54728949,1.495233093856332
2025-01-08 09:35:14.732855040,0.31465966,1.4800041160339446
2025-01-08 09:35:14.742891008,0.15506868,1.4642775525777467
2025-01-08 09:35:14.752943872,0.12548423,1.4480638485681547
2025-01-08 09:35:14.763181824,0.19174096,1.431373734956059
2025-01-08 09:35:14.772934912,0.23237148,1.4142182212085639
2025-01-08 09:35:14.782958080,0.22150443,1.396608587794354
2025-01-08 09:35:14.792929792,0.20606409,1.378556378513959
2025-01-08 09:35:14.802931968,0.16148704,1.3600733926802677
2025-01-08 09:35:14.812946176,0.11452753,1.341171677154734
2025-01-08 09:35:14.822990848,0.11161223,1.3218635182447867
2025-01-08 09:35:14.833014016,0.16540146,1.302161433468039
2025-01-08 09:35:14.843017984,0.25963521,1.2820781631889506
2025-01-08 09:35:14.852952064,0.34513855,1.2616266621336845
2025-01-08 09:35:14.863117824,0.38466692,1.2408200907889286
2025-01-08 09:35:14.872989952,0.40345657,1.2196718066905516
2025-01-08 09:35:14.883030784,0.47834578,1.1981953556079852
2025-01-08 09:35:14.893048064,0.59229779,1.176404462630286
2025-01-08 09:35:14.902980096,0.61826348,1.1543130231598833
2025-01-08 09:35:14.912928000,0.54847443,1.1319350938200472
2025-01-08 09:35:14.923094016,0.49472475,1.109284883282166
2025-01-08 09:35:14.933085952,0.49435124,1.0863767430189355
2025-01-08 09:35:14.943043072,0.47607881,1.0632251579896133
2025-01-08 09:35:14.953079040,0.37883985,1.0398447372635
2025-01-08 09:35:14.963613952,0.19487152,1.0162502045878414
2025-01-08 09:35:14.973071104,0.03520077,0.9924563889063557
2025-01-08 09:35:14.983059968,0.04452825,0.968478214834607
2025-01-08 09:35:14.994245120,0.38505018,0.944330693098452
2025-01-08 09:35:15.002939904,1.04864919,0.9200289109417961
2025-01-08 09:35:15.013125888,1.61385512,0.8955880225098886
2025-01-08 09:35:15.023065088,1.53296959,0.8710232392143893
2025-01-08 09:35:15.034168832,1.04871726,0.8463498200864281
2025-01-08 09:35:15.043153152,0.81569219,0.8215830621238669
2025-01-08 09:35:15.053236992,0.84810573,0.7967382906389584
2025-01-08 09:35:15.063241984,0.87697113,0.7718308496125763
2025-01-08 09:35:15.073175808,0.84553313,0.7468760920611686
2025-01-08 09:35:15.083215872,0.90091091,0.7218893704225507
2025-01-08 09:35:15.093327104,1.07311666,0.6968860269666386
2025-01-08 09:35:15.104310016,1.26077294,0.6718813842371655
2025-01-08 09:35:15.113115904,1.36890197,0.6468907355304047
2025-01-08 09:35:15.123207936,1.38436913,0.6219293354168691
2025-01-08 09:35:15.133425920,1.32526982,0.5970123903119083
2025-01-08 09:35:15.143305984,1.2656579,0.5721550491010791
2025-01-08 09:35:15.153263104,1.25551271,0.547372393826108
2025-01-08 09:35:15.163362048,1.21518922,0.5226794304372064
2025-01-08 09:35:15.173391104,1.11498296,0.49809107961743315
2025-01-08 09:35:15.183355136,1.01976895,0.47362216768474596
2025-01-08 09:35:15.193260032,0.95790642,0.44928741757729473
2025-01-08 09:35:15.203280896,0.89887369,0.42510143992745825
2025-01-08 09:35:15.213115904,0.82689542,0.4010787242300372
2025-01-08 09:35:15.223217920,0.75007117,0.37723363010993816
2025-01-08 09:35:15.233249792,0.66802448,0.3535803786946104
2025-01-08 09:35:15.243233792,0.58324802,0.33013304409640026
2025-01-08 09:35:15.253232128,0.49560821,0.3069055450099076
2025-01-08 09:35:15.263290880,0.39613318,0.28391163642933404
2025-01-08 09:35:15.273366016,0.27964967,0.26116490149072247
2025-01-08 09:35:15.283281152,0.13904059,0.23867874344388157
2025-01-08 09:35:15.293281024,-0.04334635,0.21646637775870078
2025-01-08 09:35:15.303281920,-0.24885136,0.19454082437045195
2025-01-08 09:35:15.313330944,-0.43184876,0.17291490006856305
2025-01-08 09:35:15.323342080,-0.57890284,0.15160121103325888
2025-01-08 09:35:15.333359872,-0.70005709,0.1306121455243353
2025-01-08 09:35:15.343375872,-0.79921329,0.10995986672623083
2025-01-08 09:35:15.353367040,-0.86763543,0.08965630575344256
2025-01-08 09:35:15.363305984,-0.9076038,0.06971315482021867
2025-01-08 09:35:15.373334784,-0.91583896,0.05014186057833224
2025-01-08 09:35:15.383372032,-0.89587003,0.030953617626633366
2025-01-08 09:35:15.393396992,-0.85917157,0.012159362195942882
2025-01-08 09:35:15.403301120,-0.8431899,-0.006230233987273166
2025-01-08 09:35:15.413291008,-0.8544274,-0.02420476965512749
2025-01-08 09:35:15.423299072,-0.88003558,-0.04175411976725033
2025-01-08 09:35:15.433255936,-0.897282,-0.058868441091387405
2025-01-08 09:35:15.443283968,-0.88795334,-0.07553817759272836
2025-01-08 09:35:15.453277184,-0.86673677,-0.09175406562917227
2025-01-08 09:35:15.463290880,-0.84926957,-0.1075071389498769
2025-01-08 09:35:15.473453056,-0.83643329,-0.12278873349456161
2025-01-08 09:35:15.483592960,-0.82199389,-0.1375904919911774
2025-01-08 09:35:15.493697024,-0.79357713,-0.1519043683497002
2025-01-08 09:35:15.503467008,-0.7356469,-0.16572263184992628
2025-01-08 09:35:15.513617152,-0.61856812,-0.17903787112130418
2025-01-08 09:35:15.523260160,-0.43872041,-0.19184299791296702
2025-01-08 09:35:15.533317120,-0.19517982,-0.2041312506522724
2025-01-08 09:35:15.543414016,0.11566943,-0.21589619779029715
2025-01-08 09:35:15.553453824,0.48732561,-0.22713174093288188
2025-01-08 09:35:15.563448832,0.79797244,-0.23783211775594823
2025-01-08 09:35:15.573474816,0.85854512,-0.247991904703966
2025-01-08 09:35:15.583614208,0.64362639,-0.2576060194705902
2025-01-08 09:35:15.593506048,0.38638079,-0.266669723260614
2025-01-08 09:35:15.603435008,0.20878953,-0.2751786228325468
2025-01-08 09:35:15.616261888,0.0669592,-0.28312867232125466
2025-01-08 09:35:15.623539968,-0.07302624,-0.290516174840246
2025-01-08 09:35:15.633421824,-0.19946754,-0.29733778386332466
2025-01-08 09:35:15.643598080,-0.2722705,-0.30359050438548324
2025-01-08 09:35:15.653423104,-0.26958942,-0.3092716938630328
2025-01-08 09:35:15.663578880,-0.21246475,-0.31437906293311974
2025-01-08 09:35:15.673569024,-0.17132533,-0.3189106759129156
2025-01-08 09:35:15.683776000,-0.16497344,-0.32286495107889995
2025-01-08 09:35:15.693592064,-0.1538983,-0.3262406607267973
2025-01-08 09:35:15.703633920,-0.12857801,-0.3290369310128689
2025-01-08 09:35:15.713568000,-0.11633241,-0.3312532415773889
2025-01-08 09:35:15.723673088,-0.12793005,-0.33288942495127155
2025-01-08 09:35:15.733700096,-0.15479106,-0.3339456657469565
2025-01-08 09:35:15.743482112,-0.18302876,-0.3344224996347766
2025-01-08 09:35:15.753624832,-0.20537168,-0.3343208121061781
2025-01-08 09:35:15.764353024,-0.21187139,-0.3336418370252815
2025-01-08 09:35:15.773587968,-0.19814318,-0.33238715497040927
2025-01-08 09:35:15.783702016,-0.17625219,-0.3305586913673173
2025-01-08 09:35:15.793554176,-0.1616981,-0.32815871441601435
2025-01-08 09:35:15.803497984,-0.16512758,-0.32518983281315
2025-01-08 09:35:15.816647936,-0.18630713,-0.32165499327209324
2025-01-08 09:35:15.823770112,-0.20473552,-0.3175574778429368
2025-01-08 09:35:15.833875968,-0.19813693,-0.31290090103477153
2025-01-08 09:35:15.843753216,-0.15781695,-0.3076892067427011
2025-01-08 09:35:15.853665024,-0.09456933,-0.301926664982178
2025-01-08 09:35:15.863737088,-0.0196054,-0.2956178684333436
2025-01-08 09:35:15.873716224,0.07022309,-0.28876772879817836
2025-01-08 09:35:15.883703040,0.16574872,-0.2813814729733624
2025-01-08 09:35:15.893774080,0.25222093,-0.273464639041857
2025-01-08 09:35:15.903714816,0.31590593,-0.2650230720863167
2025-01-08 09:35:15.913780992,0.34969544,-0.2560629198275444
2025-01-08 09:35:15.923689984,0.34365559,-0.24659062809129353
2025-01-08 09:35:15.933789952,0.29945439,-0.23661293610681888
2025-01-08 09:35:15.943702016,0.23661232,-0.2261368716406712
2025-01-08 09:35:15.954006016,0.17863226,-0.21516974596931385
2025-01-08 09:35:15.963918848,0.13603246,-0.2037191486942325
2025-01-08 09:35:15.973932032,0.11774707,-0.19179294240328848
2025-01-08 09:35:15.983931904,0.14964318,-0.17939925718214933
2025-01-08 09:35:15.994117888,0.23362744,-0.1665464849797052
2025-01-08 09:35:16.003901952,0.33845448,-0.15324327383146277
2025-01-08 09:35:16.013884928,0.43471307,-0.13949852194496812
2025-01-08 09:35:16.023753984,0.49662411,-0.12532137165139423
2025-01-08 09:35:16.033752832,0.51281512,-0.11072120322747998
2025-01-08 09:35:16.044080896,0.49570733,-0.09570762859208937
2025-01-08 09:35:16.053842944,0.47848678,-0.08029048488169868
2025-01-08 09:35:16.063838976,0.47801453,-0.06447982790919947
2025-01-08 09:35:16.073873920,0.47981426,-0.04828592551044027
2025-01-08 09:35:16.083831040,0.47841498,-0.031719250782995666
2025-01-08 09:35:16.094016000,0.48435837,-0.01479047522169392
2025-01-08 09:35:16.103920896,0.49909019,0.0024895382445230905
2025-01-08 09:35:16.113871104,0.51425797,0.02010974230978217
2025-01-08 09:35:16.123909888,0.53371888,0.03805891243785049
2025-01-08 09:35:16.133918976,0.55744511,0.05632565409339486
2025-01-08 09:35:16.143950080,0.58779007,0.07489841005320605
2025-01-08 09:35:16.153944064,0.59637916,0.09376546779262639
2025-01-08 09:35:16.163995904,0.58914483,0.11291496694239644
2025-01-08 09:35:16.173892864,0.60617483,0.13233490681111212
2025-01-08 09:35:16.183913984,0.67350948,0.15201315396846155
2025-01-08 09:35:16.193923840,0.7835443,0.171937449884397
2025-01-08 09:35:16.203949824,0.92652422,0.192095418619378
2025-01-08 09:35:16.213996032,1.04512405,0.21247457456081467
2025-01-08 09:35:16.225790976,0.96429747,0.23306233020082961
2025-01-08 09:35:16.233947136,0.61544037,0.2538460039504535
2025-01-08 09:35:16.243876864,0.21136957,0.27481282798536494
2025-01-08 09:35:16.253992192,-0.0606837,0.2959499561182898
2025-01-08 09:35:16.265243136,-0.073028,0.31724447169317527
2025-01-08 09:35:16.274215936,0.13772681,0.33868339549626375
2025-01-08 09:35:16.284184832,0.27513036,0.36025369367920324
2025-01-08 09:35:16.294127104,0.14119804,0.38194228568933547
2025-01-08 09:35:16.304091904,-0.03356844,0.40373605220233505
2025-01-08 09:35:16.313925120,0.01095265,0.4256218430523721
2025-01-08 09:35:16.324044032,0.19022751,0.44758648515500987
2025-01-08 09:35:16.334099968,0.28020155,0.46961679041806326
2025-01-08 09:35:16.344080896,0.22747764,0.4916995636356759
2025-01-08 09:35:16.354073088,0.10433733,0.5138216103609021
2025-01-08 09:35:16.364086016,0.00086036,0.5359697447521149
2025-01-08 09:35:16.374125056,-0.03299829,0.5581307973885956
2025-01-08 09:35:16.384135936,-0.04223898,0.5802916230507
2025-01-08 09:35:16.394144000,-0.06402129,0.6024391084600339
2025-01-08 09:35:16.404858112,-0.10067034,0.6245601799751263
2025-01-08 09:35:16.414179072,-0.14224339,0.6466418112381138
2025-01-08 09:35:16.424115968,-0.17900884,0.6686710307680229
2025-01-08 09:35:16.434189056,-0.19902933,0.6906349294962698
2025-01-08 09:35:16.444118016,-0.2154026,0.7125206682400594
2025-01-08 09:35:16.454103040,-0.23215145,0.7343154851094221
2025-01-08 09:35:16.464797952,-0.24321079,0.7560067028436825
2025-01-08 09:35:16.474076160,-0.24826658,0.7775817360732136
2025-01-08 09:35:16.484271104,-0.24541992,0.7990280985024019
2025-01-08 09:35:16.494164992,-0.23245662,0.8203334100098016
2025-01-08 09:35:16.504103936,-0.20258218,0.8414854036615336
2025-01-08 09:35:16.514190080,-0.14869082,0.8624719326340491
2025-01-08 09:35:16.524162048,-0.08414531,0.8832809770424553
2025-01-08 09:35:16.534231040,-0.00910586,0.9039006506706638
2025-01-08 09:35:16.544184064,0.08553362,0.9243192075997066
2025-01-08 09:35:16.554231808,0.19677168,0.9445250487306456
2025-01-08 09:35:16.564243200,0.3153249,0.9645067281985614
2025-01-08 09:35:16.574196224,0.45625901,0.984252959674213
2025-01-08 09:35:16.584211968,0.65378714,1.0037526225500264
2025-01-08 09:35:16.594216960,0.91355765,1.0229947680071567
2025-01-08 09:35:16.604252160,1.15272903,1.041968624960458
2025-01-08 09:35:16.614270976,1.23185611,1.0606636058782823
2025-01-08 09:35:16.624242176,1.13731933,1.0790693124741102
2025-01-08 09:35:16.634257920,1.04204059,1.0971755412671182
2025-01-08 09:35:16.644283904,1.03966975,1.1149722890088676
2025-01-08 09:35:16.654306048,1.10583961,1.1324497579733985
2025-01-08 09:35:16.664269824,1.23173559,1.1495983611081042
2025-01-08 09:35:16.674257152,1.42055058,1.1664087270428625
2025-01-08 09:35:16.684276224,1.5726788,1.1828717049549755
2025-01-08 09:35:16.694309888,1.57027555,1.1989783692876055
2025-01-08 09:35:16.704701952,1.42947578,1.2147200243194451
2025-01-08 09:35:16.714381824,1.29456925,1.2300882085834945
2025-01-08 09:35:16.724363008,1.27274346,1.2450746991329071
2025-01-08 09:35:16.734348032,1.31301999,1.259671515651956
2025-01-08 09:35:16.744363008,1.32510924,1.2738709244102857
2025-01-08 09:35:16.754501120,1.29208446,1.2876654420587166
2025-01-08 09:35:16.764514048,1.18596327,1.3010478392649572
2025-01-08 09:35:16.774487040,1.06936884,1.3140111441876983
2025-01-08 09:35:16.784451840,0.91711682,1.3265486457876583
2025-01-08 09:35:16.794451968,0.58057344,1.338653896974249
2025-01-08 09:35:16.804441856,0.06867105,1.3503207175866407
2025-01-08 09:35:16.814572032,-0.50258714,1.3615431972081082
2025-01-08 09:35:16.824402176,-0.99404234,1.372315697812642
2025-01-08 09:35:16.834238976,-1.30624306,1.3826328562429056
2025-01-08 09:35:16.846721024,-1.42208505,1.392489586518743
2025-01-08 09:35:16.854480128,-1.55490422,1.401881081975523
2025-01-08 09:35:16.864345088,-1.79154229,1.4108028172317202
2025-01-08 09:35:16.874295040,-1.9065007,1.4192505499852415
2025-01-08 09:35:16.884377856,-1.82161129,1.4272203226381013
2025-01-08 09:35:16.894417920,-1.58795607,1.434708463749152
2025-01-08 09:35:16.904563968,-1.19786775,1.4417115893146872
2025-01-08 09:35:16.914586112,-0.74128246,1.448226603876831
2025-01-08 09:35:16.924557056,-0.41753155,1.4542507014597232
2025-01-08 09:35:16.934511872,-0.07083327,1.4597813663336323
2025-01-08 09:35:16.944449024,0.40532684,1.4648163736071966
2025-01-08 09:35:16.954513920,1.04912114,1.469353789648127
2025-01-08 09:35:16.964476160,1.70531702,1.4733919723327809
2025-01-08 09:35:16.974586880,2.29969907,1.476929571125125
2025-01-08 09:35:16.984638976,2.94113302,1.479965526985702
2025-01-08 09:35:16.994923008,3.8271625,1.4824990721113134
2025-01-08 09:35:17.004561920,4.78723192,1.4845297295062205
2025-01-08 09:35:17.014540032,5.4870224,1.4860573123857705
2025-01-08 09:35:17.024609024,6.02209902,1.487081923413441
2025-01-08 09:35:17.034499840,6.57434607,1.4876039537723926
2025-01-08 09:35:17.044517888,6.72005415,1.4876240820727078
2025-01-08 09:35:17.054717952,6.65664434,1.4871432730955934
2025-01-08 09:35:17.064466944,6.44516039,1.4861627763758993
2025-01-08 09:35:17.074656000,5.93481684,1.4846841246244074
2025-01-08 09:35:17.084549888,5.38225126,1.4827091319914245
2025-01-08 09:35:17.094561024,4.97655964,1.4802398921733044
2025-01-08 09:35:17.104588032,4.58254337,1.477278776363593
2025-01-08 09:35:17.114556928,4.14420271,1.4738284310506014
2025-01-08 09:35:17.125094912,3.74569917,1.46989177566326
2025-01-08 09:35:17.134633984,3.19747043,1.4654720000672121
2025-01-08 09:35:17.144547072,2.62345982,1.460572561913173
2025-01-08 09:35:17.154618880,2.49628782,1.4551971838396518
2025-01-08 09:35:17.164659968,2.29940557,1.4493498505322235
2025-01-08 09:35:17.174642944,1.9300288,1.443034805641596
2025-01-08 09:35:17.184645888,1.63379526,1.436256548562801
2025-01-08 09:35:17.194732800,1.53307307,1.429019831077895
2025-01-08 09:35:17.204786944,1.53137934,1.4213296538646434
2025-01-08 09:35:17.214624768,1.43711936,1.413191262873701
2025-01-08 09:35:17.224851968,1.31632268,1.4046101455768927
2025-01-08 09:35:17.234692096,1.34017777,1.3955920270892472
2025-01-08 09:35:17.244653056,1.47815454,1.3861428661674953
2025-01-08 09:35:17.254731776,1.61123204,1.3762688510878125
2025-01-08 09:35:17.264781056,1.60707784,1.3659763954056388
2025-01-08 09:35:17.274662144,1.37540877,1.355272133600456
2025-01-08 09:35:17.284683008,1.02359045,1.3441629166084728
2025-01-08 09:35:17.294897152,0.72675556,1.3326558072462036
2025-01-08 09:35:17.304900864,0.5135324,1.3207580755279826
2025-01-08 09:35:17.314724096,0.32202736,1.3084771938805029
2025-01-08 09:35:17.324759040,0.18236005,1.2958208322575162
2025-01-08 09:35:17.334853888,0.17974895,1.2827968531578637
2025-01-08 09:35:17.344724992,0.20951602,1.2694133065500666
2025-01-08 09:35:17.354896896,0.18631232,1.255678424706723
2025-01-08 09:35:17.364785920,0.16399001,1.2416006169520137
2025-01-08 09:35:17.374804992,0.13071401,1.2271884643256419
2025-01-08 09:35:17.384773120,0.10015139,1.2124507141665697
2025-01-08 09:35:17.394768896,0.14246196,1.1973962746199516
2025-01-08 09:35:17.404815872,0.23639673,1.182034209070673
2025-01-08 09:35:17.414787072,0.31350079,1.1663737305069597
2025-01-08 09:35:17.424835072,0.37967473,1.1504241958175172
2025-01-08 09:35:17.434850048,0.45482194,1.1341951000257078
2025-01-08 09:35:17.444811008,0.53796363,1.1176960704642696
2025-01-08 09:35:17.454871040,0.59097099,1.1009368608941272
2025-01-08 09:35:17.465365760,0.60408777,1.0839273455708298
2025-01-08 09:35:17.474842112,0.59398544,1.0666775132621946
2025-01-08 09:35:17.484803072,0.54244196,1.0491974612207238
2025-01-08 09:35:17.495121920,0.42441052,1.031497389114388
2025-01-08 09:35:17.505067008,0.30557275,1.013587592919368
2025-01-08 09:35:17.514861056,0.315898,0.9954784587783613
2025-01-08 09:35:17.524889088,0.45281684,0.9771804568280474
2025-01-08 09:35:17.534961920,0.46546173,0.9587041349993326
2025-01-08 09:35:17.544977920,0.20939118,0.9400601127939698
2025-01-08 09:35:17.555075840,0.04956371,0.9212590750411621
2025-01-08 09:35:17.565079808,0.29385281,0.9023117656377502
2025-01-08 09:35:17.575084800,0.83071578,0.8832289812755741
2025-01-08 09:35:17.585061120,1.36076152,0.8640215651595996
2025-01-08 09:35:17.594973952,1.56563711,0.8447004007203798
2025-01-08 09:35:17.605037824,1.36966014,0.8252764053244158
2025-01-08 09:35:17.614938880,1.08806634,0.8057605239859693
2025-01-08 09:35:17.625474816,0.93532777,0.7861637230838531
2025-01-08 09:35:17.635014144,0.93777251,0.7664969840867221
2025-01-08 09:35:17.645091072,1.01329041,0.7467712972903529
2025-01-08 09:35:17.655080960,1.04934359,0.7269976555703919
2025-01-08 09:35:17.665049088,1.05530453,0.7071870481540194
2025-01-08 09:35:17.675048192,1.07010555,0.6873504544139547
2025-01-08 09:35:17.685062912,1.09317279,0.6674988376882005
2025-01-08 09:35:17.695048192,1.11970627,0.6476431391288984
2025-01-08 09:35:17.705374976,1.15299201,0.6277942715836317
2025-01-08 09:35:17.715046912,1.16944814,0.6079631135124853
2025-01-08 09:35:17.725037056,1.14913344,0.5881605029441335
2025-01-08 09:35:17.735124992,1.12292969,0.5683972314741954
2025-01-08 09:35:17.745083136,1.10849309,0.548684038309059
2025-01-08 09:35:17.754978048,1.03638113,0.5290316043583355
2025-01-08 09:35:17.765073152,0.92258906,0.5094505463790653
2025-01-08 09:35:17.775241984,0.84510881,0.4899514111747597
2025-01-08 09:35:17.785106944,0.80463046,0.4705446698523109
2025-01-08 09:35:17.795168000,0.75773662,0.45124071213976874
2025-01-08 09:35:17.805116928,0.70241761,0.4320498407679258
2025-01-08 09:35:17.815112192,0.64294934,0.4129822659186135
2025-01-08 09:35:17.825126912,0.5779658,0.39404809974256233
2025-01-08 09:35:17.835078912,0.49962854,0.37525735094961943
2025-01-08 09:35:17.845118976,0.40828127,0.3566199194740816
2025-01-08 09:35:17.855143168,0.31033945,0.3381455912178358
2025-01-08 09:35:17.865288960,0.1843524,0.31984403287394986
2025-01-08 09:35:17.875183104,0.03007513,0.30172478683330517
2025-01-08 09:35:17.885144832,-0.13593143,0.2837972661768005
2025-01-08 09:35:17.895215104,-0.31542414,0.26607074975560124
2025-01-08 09:35:17.905131008,-0.50347412,0.24855437736185257
2025-01-08 09:35:17.915168000,-0.69044644,0.23125714499221559
2025-01-08 09:35:17.925174016,-0.82791692,0.21418790020651537
2025-01-08 09:35:17.935203072,-0.88676691,0.1973553375837468
2025-01-08 09:35:17.945169920,-0.88443881,0.18076799427760526
2025-01-08 09:35:17.955169792,-0.85957932,0.1644342456736535
2025-01-08 09:35:17.965689856,-0.83802021,0.1483623011501724
2025-01-08 09:35:17.975145216,-0.83053404,0.1325601999446785
2025-01-08 09:35:17.985090048,-0.8376658,0.11703580712801924
2025-01-08 09:35:17.995169024,-0.84343088,0.10179680968790472
2025-01-08 09:35:18.005147904,-0.84935373,0.0868507127236511
2025-01-08 09:35:18.015148032,-0.85987103,0.07220483575385554
2025-01-08 09:35:18.025192960,-0.87125909,0.057866309138650325
2025-01-08 09:35:18.035088896,-0.88297522,0.043842070618114216
2025-01-08 09:35:18.045345024,-0.88502085,0.030138861968349046
2025-01-08 09:35:18.055305984,-0.86080194,0.016763225776665686
2025-01-08 09:35:18.065234944,-0.80859756,0.0037215023372462516
2025-01-08 09:35:18.075557120,-0.7375682,-0.008980173331418729
2025-01-08 09:35:18.087225088,-0.65734845,-0.021335874346089155
2025-01-08 09:35:18.096123904,-0.55402893,-0.033339884694169375
2025-01-08 09:35:18.105344000,-0.40486819,-0.04498670184386077
2025-01-08 09:35:18.115247104,-0.18853557,-0.05627103922805015
2025-01-08 09:35:18.125745920,0.10736287,-0.06718782860099813
2025-01-08 09:35:18.135556096,0.45731574,-0.07773222226695646
2025-01-08 09:35:18.145328896,0.73649591,-0.08789959517991815
2025-01-08 09:35:18.155270144,0.74963135,-0.09768554691377289
2025-01-08 09:35:18.165366016,0.50027281,-0.1070859035022225
2025-01-08 09:35:18.175375104,0.23753524,-0.11609671914787034
2025-01-08 09:35:18.185334016,0.07203656,-0.12471427779998144
2025-01-08 09:35:18.195277824,-0.02977055,-0.1329350946004788
2025-01-08 09:35:18.205372928,-0.11179656,-0.1407559171978145
2025-01-08 09:35:18.215549952,-0.18595916,-0.14817372692842437
2025-01-08 09:35:18.225415936,-0.23198521,-0.15518573986555131
2025-01-08 09:35:18.235256832,-0.23517364,-0.1617894077352913
2025-01-08 09:35:18.245372160,-0.23085421,-0.16798241869978547
2025-01-08 09:35:18.255373056,-0.24078411,-0.1737626980075626
2025-01-08 09:35:18.265533952,-0.24375403,-0.17912840851109496
2025-01-08 09:35:18.275366912,-0.23015881,-0.18407795105170913
2025-01-08 09:35:18.285422080,-0.2225827,-0.1886099647120655
2025-01-08 09:35:18.295514112,-0.22744215,-0.19272332693648161
2025-01-08 09:35:18.305573888,-0.22630453,-0.19641715351945238
2025-01-08 09:35:18.315473920,-0.20410991,-0.19969079846278798
2025-01-08 09:35:18.325508096,-0.16629195,-0.20254385370185204
2025-01-08 09:35:18.335560192,-0.13081032,-0.2049761487014613
2025-01-08 09:35:18.345509120,-0.12675762,-0.2069877499220682
2025-01-08 09:35:18.355528192,-0.16045928,-0.20857896015691543
2025-01-08 09:35:18.365571072,-0.22167343,-0.2097503177409218
2025-01-08 09:35:18.375616000,-0.27762657,-0.2105025956321209
2025-01-08 09:35:18.385603840,-0.30645436,-0.2108368003665385
2025-01-08 09:35:18.395990016,-0.30692708,-0.2107541708874622
2025-01-08 09:35:18.405703168,-0.29453343,-0.21025617725011791
2025-01-08 09:35:18.415667968,-0.28044784,-0.2093445192028313
2025-01-08 09:35:18.425682176,-0.24917024,-0.20802112464581213
2025-01-08 09:35:18.435579136,-0.19935924,-0.20628814796876604
2025-01-08 09:35:18.445545984,-0.13279384,-0.20414796826859163
2025-01-08 09:35:18.455741952,-0.05929703,-0.2016031874484835
2025-01-08 09:35:18.465506048,0.00732136,-0.19865662819982302
2025-01-08 09:35:18.475533056,0.06864792,-0.19531133186829105
2025-01-08 09:35:18.485555968,0.13170201,-0.1915705562056935
2025-01-08 09:35:18.495682048,0.1822142,-0.18743777300905448
2025-01-08 09:35:18.505656832,0.19924074,-0.18291666564857295
2025-01-08 09:35:18.515649024,0.17008114,-0.17801112648610484
2025-01-08 09:35:18.525634048,0.12056226,-0.1727252541858772
2025-01-08 09:35:18.535653120,0.08975446,-0.16706335091919478
2025-01-08 09:35:18.545680896,0.09857595,-0.16102991946495143
2025-01-08 09:35:18.555606016,0.14847952,-0.15462966020780516
2025-01-08 09:35:18.565624832,0.23251426,-0.14786746803592488
2025-01-08 09:35:18.575622144,0.3364985,-0.14074842914026434
2025-01-08 09:35:18.585655808,0.45211309,-0.13327781771736408
2025-01-08 09:35:18.595681024,0.57177359,-0.12546109257772525
2025-01-08 09:35:18.605814016,0.6656931,-0.11730389366184711
2025-01-08 09:35:18.615699968,0.69312865,-0.10881203846605515
2025-01-08 09:35:18.625591040,0.65314484,-0.09999151838029381
2025-01-08 09:35:18.636015872,0.59071118,-0.09084849494009503
2025-01-08 09:35:18.645771008,0.5277651,-0.08138929599497198
2025-01-08 09:35:18.655670784,0.46676642,-0.07162041179552349
2025-01-08 09:35:18.666244864,0.41839528,-0.06154849100157404
2025-01-08 09:35:18.675740928,0.4060753,-0.05118033661370555
2025-01-08 09:35:18.685735936,0.43389595,-0.04052290183056942
2025-01-08 09:35:18.695767040,0.48198476,-0.02958328583440333
2025-01-08 09:35:18.705841920,0.52692103,-0.01836872950720467
2025-01-08 09:35:18.715779072,0.57199633,-0.006886611080041854
2025-01-08 09:35:18.725724928,0.63536501,0.0048555582819871995
2025-01-08 09:35:18.735714816,0.73178434,0.01685013895661208
2025-01-08 09:35:18.745821952,0.8027494,0.029089367400501984
2025-01-08 09:35:18.755894784,0.79091418,0.04156536074205037
2025-01-08 09:35:18.765853952,0.74928761,0.05427012142822034
2025-01-08 09:35:18.775760896,0.77374041,0.06719554192282753
2025-01-08 09:35:18.785815040,0.87426472,0.08033340945361132
2025-01-08 09:35:18.795811840,0.90518802,0.09367541080542767
2025-01-08 09:35:18.806449920,0.79233265,0.1072131371568843
2025-01-08 09:35:18.816018176,0.57789707,0.12093808895771717
2025-01-08 09:35:18.825911040,0.35778663,0.13484168084420092
2025-01-08 09:35:18.835810816,0.30630931,0.1489152465898659
2025-01-08 09:35:18.845881088,0.45997807,0.16315004408879014
2025-01-08 09:35:18.855791104,0.5837208,0.1775372603687193
2025-01-08 09:35:18.865950208,0.50642204,0.1920680166312645
2025-01-08 09:35:18.875841024,0.34240329,0.20673337331641597
2025-01-08 09:35:18.885867008,0.20663974,0.22152433518861034
2025-01-08 09:35:18.895814912,0.11078805,0.23643185644158313
2025-01-08 09:35:18.905920000,0.03161752,0.251446845819231
2025-01-08 09:35:18.915857152,-0.05739534,0.2665601717497185
2025-01-08 09:35:18.927907072,-0.17518878,0.28176266749005047
2025-01-08 09:35:18.935916800,-0.31204563,0.2970451362783446
2025-01-08 09:35:18.946067200,-0.43110538,0.3123983564910342
2025-01-08 09:35:18.955895040,-0.49980932,0.32781308680224097
2025-01-08 09:35:18.965914112,-0.5103296,0.34328007134255667
2025-01-08 09:35:18.975898880,-0.47965616,0.3587900448544891
2025-01-08 09:35:18.985907200,-0.42242777,0.37433373784182805
2025-01-08 09:35:18.995958016,-0.34670776,0.38990188171019924
2025-01-08 09:35:19.005965824,-0.25621831,0.4054852138960906
2025-01-08 09:35:19.015983104,-0.16712546,0.4210744829816391
2025-01-08 09:35:19.025980928,-0.09350884,0.43666045379248714
2025-01-08 09:35:19.036139008,-0.03094018,0.4522339124760312
2025-01-08 09:35:19.045954816,0.02715832,0.46778567155739853
2025-01-08 09:35:19.055951104,0.09080213,0.48330657497051216
2025-01-08 09:35:19.066028032,0.15690649,0.4987875030616173
2025-01-08 09:35:19.076025088,0.22374535,0.5142193775626661
2025-01-08 09:35:19.086034944,0.28877735,0.529593166531979
2025-01-08 09:35:19.096024064,0.35568756,0.5448998892596228
2025-01-08 09:35:19.106056960,0.41605687,0.5601306211349725
2025-01-08 09:35:19.116007168,0.46639884,0.5752764984739435
2025-01-08 09:35:19.125979904,0.49490154,0.5903287233034181
2025-01-08 09:35:19.136042240,0.5349021,0.605278568100403
2025-01-08 09:35:19.145986048,0.62394917,0.6201173804834968
2025-01-08 09:35:19.156038144,0.74347603,0.6348365878542733
2025-01-08 09:35:19.167571968,0.83364582,0.6494277019862104
2025-01-08 09:35:19.176173824,0.87167799,0.6638823235588358
2025-01-08 09:35:19.186270976,0.92652488,0.6781921466347933
2025-01-08 09:35:19.196242176,1.04367769,0.6923489630775588
2025-01-08 09:35:19.206736128,1.20211315,0.7063446669075832
2025-01-08 09:35:19.216751104,1.32441866,0.7201712585946696
2025-01-08 09:35:19.226556160,1.34505188,0.7338208492844278
2025-01-08 09:35:19.236203008,1.27683592,0.7472856649566938
2025-01-08 09:35:19.246104832,1.1790874,0.7605580505138385
2025-01-08 09:35:19.256077056,1.09171104,0.773630473796927
2025-01-08 09:35:19.266027008,1.02827644,0.78649552952774
2025-01-08 09:35:19.276099072,1.01609993,0.7991459431747037
2025-01-08 09:35:19.286113024,1.03845954,0.8115745747408212
2025-01-08 09:35:19.296158976,0.98573399,0.8237744224717415
2025-01-08 09:35:19.306163968,0.86895788,0.83573862648215
2025-01-08 09:35:19.316206848,0.68621606,0.8474604722987078
2025-01-08 09:35:19.326214912,0.4444437,0.8589333943178107
2025-01-08 09:35:19.336232960,0.12435305,0.8701509791764978
2025-01-08 09:35:19.346206976,-0.36711955,0.8811069690348725
2025-01-08 09:35:19.356158976,-0.95306981,0.8917952647684607
2025-01-08 09:35:19.366172928,-1.38427424,0.9022099290689735
2025-01-08 09:35:19.376198912,-1.63161182,0.9123451894519926
2025-01-08 09:35:19.386249984,-1.79090977,0.9221954411701531
2025-01-08 09:35:19.396214016,-1.81975842,0.9317552500304429
2025-01-08 09:35:19.406217984,-1.68969488,0.9410193551142945
2025-01-08 09:35:19.416260864,-1.59903717,0.9499826713991947
2025-01-08 09:35:19.426276096,-1.65729189,0.9586402922806015
2025-01-08 09:35:19.436227072,-1.70943475,0.9669874919929896
2025-01-08 09:35:19.446329088,-1.63413608,0.9750197279289261
2025-01-08 09:35:19.456242176,-1.459185,0.9827326428551146
2025-01-08 09:35:19.466258176,-1.22108507,0.9901220670244092
2025-01-08 09:35:19.476275968,-0.85292459,0.9971840201828512
2025-01-08 09:35:19.486277120,-0.4446466,1.0039147134708475
2025-01-08 09:35:19.496285952,-0.11096674,1.010310551217646
2025-01-08 09:35:19.506302208,0.27623057,1.0163681326283474
2025-01-08 09:35:19.516360960,0.74376118,1.0220842533627232
2025-01-08 09:35:19.526354944,1.32093298,1.0274559070051883
2025-01-08 09:35:19.536340992,2.06419015,1.032480286425318
2025-01-08 09:35:19.546449920,2.7722075,1.0371547850283693
2025-01-08 09:35:19.556361984,3.29655313,1.041476997895318
2025-01-08 09:35:19.566333952,3.64878583,1.0454447228119825
2025-01-08 09:35:19.576342016,4.0158453,1.049055961186861
2025-01-08 09:35:19.586353152,4.31331253,1.052308918857378
2025-01-08 09:35:19.596386048,4.3388958,1.0552020067842738
2025-01-08 09:35:19.606356992,4.26479721,1.0577338416339586
2025-01-08 09:35:19.616432896,4.11978483,1.0599032462486755
2025-01-08 09:35:19.626370816,3.85869575,1.0617092500044123
2025-01-08 09:35:19.636406016,3.52012944,1.0631510890565288
2025-01-08 09:35:19.646460928,3.1983633,1.0642282064731494
2025-01-08 09:35:19.656423936,2.83233833,1.064940252256409
2025-01-08 09:35:19.666414080,2.5548172,1.0652870832517154
2025-01-08 09:35:19.676402944,2.47463036,1.065268762945235
2025-01-08 09:35:19.686439936,2.38863587,1.0648855611498795
2025-01-08 09:35:19.696433920,2.34371638,1.0641379535801196
2025-01-08 09:35:19.706458112,2.43345046,1.063026621316009
2025-01-08 09:35:19.716468992,2.41166162,1.0615524501568685
2025-01-08 09:35:19.726562048,2.30854678,1.0597165298651297
2025-01-08 09:35:19.736485120,2.18299079,1.0575201533008864
2025-01-08 09:35:19.747044096,1.98415947,1.0549648154477804
2025-01-08 09:35:19.756474880,1.75425029,1.0520522123308813
2025-01-08 09:35:19.766475008,1.63286388,1.0487842398272855
2025-01-08 09:35:19.778088960,1.68402219,1.0451629923702184
2025-01-08 09:35:19.786496000,1.7019099,1.0411907615474647
2025-01-08 09:35:19.796397056,1.41775692,1.0368700345950288
2025-01-08 09:35:19.806530048,0.96722227,1.0322034927869477
2025-01-08 09:35:19.817442816,0.70152873,1.027194009722265
2025-01-08 09:35:19.826626048,0.70923775,1.0218446495102096
2025-01-08 09:35:19.836754176,0.80056274,1.0161586648546683
2025-01-08 09:35:19.846484992,0.79457766,1.010139495039116
2025-01-08 09:35:19.856448000,0.68070495,1.0037907638131907
2025-01-08 09:35:19.866550016,0.53833652,0.9971162771821682
2025-01-08 09:35:19.876497920,0.37915123,0.9901200211006361
2025-01-08 09:35:19.886516992,0.24313,0.9828061590717144
2025-01-08 09:35:19.896566016,0.19423069,0.975179029653212
2025-01-08 09:35:19.906543104,0.16317113,0.9672431438721677
2025-01-08 09:35:19.916591872,0.04955432,0.959003182549262
2025-01-08 09:35:19.926564864,-0.06432353,0.9504639935346282
2025-01-08 09:35:19.936630016,-0.05543461,0.9416305888566472
2025-01-08 09:35:19.946615040,0.03618371,0.9325081417853422
2025-01-08 09:35:19.956631040,0.04901235,0.9231019838120418
2025-01-08 09:35:19.966665984,-0.0059493,0.9134176015470108
2025-01-08 09:35:19.976710144,-0.02830976,0.9034606335368055
2025-01-08 09:35:19.986713856,0.02813561,0.8932368670031304
2025-01-08 09:35:19.996814080,0.14101341,0.8827522345050285
2025-01-08 09:35:20.006963968,0.25404379,0.872012810526267
2025-01-08 09:35:20.016860928,0.29152259,0.8610248079898213
2025-01-08 09:35:20.026809088,0.28508875,0.8497945747013919
2025-01-08 09:35:20.036783872,0.33632344,0.8383285897239285
2025-01-08 09:35:20.046785024,0.40559354,0.8266334596851681
2025-01-08 09:35:20.056992000,0.4312174,0.8147159150202232
2025-01-08 09:35:20.066631168,0.42003834,0.8025828061512952
2025-01-08 09:35:20.076608000,0.33891046,0.7902410996066129
2025-01-08 09:35:20.087248128,0.22583732,0.7776978740807268
2025-01-08 09:35:20.096762880,0.1953657,0.7649603164383212
2025-01-08 09:35:20.106705920,0.25633097,0.7520357176637296
2025-01-08 09:35:20.116771840,0.23104599,0.7389314687583707
2025-01-08 09:35:20.126700032,0.17096856,0.7256550565883368
2025-01-08 09:35:20.136736000,0.37667242,0.7122140596844075
2025-01-08 09:35:20.146679040,0.87347966,0.6986161439967624
2025-01-08 09:35:20.156784896,1.35564554,0.6848690586067094
2025-01-08 09:35:20.166743040,1.39582574,0.6709806313977525
2025-01-08 09:35:20.176768000,0.88797462,0.6569587646883414
2025-01-08 09:35:20.186775040,0.50416696,0.6428114308286741
2025-01-08 09:35:20.196765952,0.48732406,0.6285466677639284
2025-01-08 09:35:20.206785024,0.46624747,0.6141725745663204
2025-01-08 09:35:20.216684032,0.4120951,0.5996973069383967
2025-01-08 09:35:20.226802944,0.58239371,0.5851290726899921
2025-01-08 09:35:20.236815872,0.83112007,0.5704761271912766
2025-01-08 09:35:20.246817024,0.90848374,0.5557467688043437
2025-01-08 09:35:20.256773120,0.88244277,0.5409493342957927
2025-01-08 09:35:20.266841856,0.88858932,0.5260921942327667
2025-01-08 09:35:20.276741888,0.91984046,0.5111837483649118
2025-01-08 09:35:20.286847232,0.92780209,0.49623242099473636
2025-01-08 09:35:20.296643072,0.90825826,0.4812466563388436
2025-01-08 09:35:20.306710016,0.88592225,0.4662349138825176
2025-01-08 09:35:20.316758016,0.90048039,0.45120566373014775
2025-01-08 09:35:20.326850816,0.94485211,0.4361673819539683
2025-01-08 09:35:20.336841216,0.98678857,0.42112854594359506
2025-01-08 09:35:20.346895872,0.99795526,0.4060976297588396
2025-01-08 09:35:20.356909056,0.97232008,0.39108309948826914
2025-01-08 09:35:20.366731776,0.90704596,0.37609340861598356
2025-01-08 09:35:20.377747968,0.81463218,0.36113699339907535
2025-01-08 09:35:20.386995968,0.72435439,0.34622226825821895
2025-01-08 09:35:20.396945920,0.65236139,0.33135762118384127
2025-01-08 09:35:20.406915072,0.58555114,0.3165514091603075
2025-01-08 09:35:20.416892928,0.51051772,0.3018119536105449
2025-01-08 09:35:20.426928128,0.43702227,0.2871475358635138
2025-01-08 09:35:20.437074944,0.36839455,0.27256639264692956
2025-01-08 09:35:20.449673984,0.31577551,0.2580767116076078
2025-01-08 09:35:20.457063936,0.26053894,0.24368662686180675
2025-01-08 09:35:20.467115008,0.15132773,0.2294042145779094
2025-01-08 09:35:20.476912128,-0.00195801,0.2152374885937755
2025-01-08 09:35:20.486887936,-0.14778316,0.20119439607107137
2025-01-08 09:35:20.496984832,-0.26314133,0.18728281318886728
2025-01-08 09:35:20.506989056,-0.36219651,0.17351054087876322
2025-01-08 09:35:20.517043200,-0.46572769,0.15988530060378603
2025-01-08 09:35:20.526952960,-0.58097392,0.14641473018327722
2025-01-08 09:35:20.536951040,-0.70379794,0.13310637966595334
2025-01-08 09:35:20.546947072,-0.80376023,0.11996770725331234
2025-01-08 09:35:20.556898048,-0.85673016,0.1070060752755143
2025-01-08 09:35:20.566902016,-0.8633396,0.09422874622184124
2025-01-08 09:35:20.576960000,-0.84762579,0.08164287882781764
2025-01-08 09:35:20.587061760,-0.84460962,0.06925552422102858
2025-01-08 09:35:20.596872192,-0.8584457,0.0570736221276508
2025-01-08 09:35:20.607090944,-0.86404711,0.04510399714167083
2025-01-08 09:35:20.617043968,-0.82745165,0.03335335505873944
2025-01-08 09:35:20.627051008,-0.75759941,0.021828279276560617
2025-01-08 09:35:20.637139200,-0.68317068,0.01053522726369477
2025-01-08 09:35:20.647123968,-0.62330246,-0.0005194729013953734
2025-01-08 09:35:20.657139968,-0.57352114,-0.011329625919260873
2025-01-08 09:35:20.667133184,-0.51696271,-0.02188917258458841
2025-01-08 09:35:20.677166080,-0.41985053,-0.0321921930258105
2025-01-08 09:35:20.687313920,-0.25934672,-0.04223290986753554
2025-01-08 09:35:20.697127936,-0.04276019,-0.05200569131415999
2025-01-08 09:35:20.707159040,0.2155897,-0.061505054153076305
2025-01-08 09:35:20.717235200,0.47251463,-0.07072566667593067
2025-01-08 09:35:20.727190016,0.62931073,-0.0796623515164299
2025-01-08 09:35:20.737176832,0.60431123,-0.08831008840323933
2025-01-08 09:35:20.747164928,0.48573762,-0.09666401682656446
2025-01-08 09:35:20.757161984,0.3693229,-0.10471943861705259
2025-01-08 09:35:20.767198208,0.25262547,-0.11247182043569509
2025-01-08 09:35:20.777164032,0.12280446,-0.11991679617346836
2025-01-08 09:35:20.787313920,0.00233293,-0.12705016925948834
2025-01-08 09:35:20.797346048,-0.09207368,-0.13386791487651098
2025-01-08 09:35:20.807367168,-0.15497702,-0.1403661820826602
2025-01-08 09:35:20.817403904,-0.17631757,-0.1465412958383097
2025-01-08 09:35:20.827352064,-0.18207914,-0.1523897589371018
2025-01-08 09:35:20.837359872,-0.20027053,-0.15790825384013693
2025-01-08 09:35:20.847377920,-0.22207838,-0.16309364441241617
2025-01-08 09:35:20.857335040,-0.23684514,-0.1679429775606736
2025-01-08 09:35:20.867292928,-0.24572462,-0.1724534847717901
2025-01-08 09:35:20.877149952,-0.26122379,-0.17662258355103094
2025-01-08 09:35:20.887290112,-0.27886939,-0.18044787875939855
2025-01-08 09:35:20.897295104,-0.29686308,-0.18392716384946106
2025-01-08 09:35:20.907321088,-0.31891918,-0.18705842199905018
2025-01-08 09:35:20.917323008,-0.34453726,-0.18983982714229267
2025-01-08 09:35:20.927334144,-0.35935807,-0.19226974489749038
2025-01-08 09:35:20.937345024,-0.34483176,-0.19434673339141353
2025-01-08 09:35:20.947300864,-0.30004144,-0.19606954397963205
2025-01-08 09:35:20.957314048,-0.23935068,-0.1974371218625679
2025-01-08 09:35:20.967315968,-0.18781883,-0.1984486065969963
2025-01-08 09:35:20.977334016,-0.16405791,-0.1991033325027904
2025-01-08 09:35:20.987634944,-0.17477393,-0.19940082896475453
2025-01-08 09:35:20.997396992,-0.21403933,-0.19934082062944553
2025-01-08 09:35:21.007406848,-0.25149053,-0.1989232274969404
2025-01-08 09:35:21.017635072,-0.25589722,-0.1981481649075636
2025-01-08 09:35:21.028044032,-0.22878957,-0.1970159434236397
2025-01-08 09:35:21.037636096,-0.18620765,-0.19552706860639787
2025-01-08 09:35:21.047504896,-0.14093435,-0.1936822406882065
2025-01-08 09:35:21.057404928,-0.09555811,-0.1914823541403713
2025-01-08 09:35:21.067364096,-0.02613932,-0.188928497136789
2025-01-08 09:35:21.077393920,0.08161008,-0.18602195091379903
2025-01-08 09:35:21.087379968,0.21033102,-0.1827641890266347
2025-01-08 09:35:21.097446912,0.32516503,-0.17915687650292503
2025-01-08 09:35:21.107444992,0.39503449,-0.17520186889375935
2025-01-08 09:35:21.117423104,0.4060604,-0.17090121122287227
2025-01-08 09:35:21.127450880,0.36964619,-0.1662571368345686
2025-01-08 09:35:21.137528064,0.3185572,-0.16127206614105477
2025-01-08 09:35:21.147331072,0.28305179,-0.15594860526989912
2025-01-08 09:35:21.157483008,0.26840585,-0.15028954461239522
2025-01-08 09:35:21.167478016,0.27316195,-0.14429785727365518
2025-01-08 09:35:21.177453056,0.2917397,-0.13797669742530835
2025-01-08 09:35:21.187494144,0.31509876,-0.13132939856173653
2025-01-08 09:35:21.198012160,0.35405308,-0.1243594716608238
2025-01-08 09:35:21.207499008,0.40407193,-0.1170706032502492
2025-01-08 09:35:21.217577984,0.45394337,-0.10946665338040118
2025-01-08 09:35:21.227507200,0.49501401,-0.10155165350504264
2025-01-08 09:35:21.237412864,0.5335685,-0.09332980427089849
2025-01-08 09:35:21.247503104,0.55293858,-0.08480547321739075
2025-01-08 09:35:21.257538048,0.53487253,-0.07598319238779079
2025-01-08 09:35:21.267488000,0.48881805,-0.06686765585310218
2025-01-08 09:35:21.277575936,0.44480383,-0.05746371715003701
2025-01-08 09:35:21.287698944,0.43202943,-0.04777638663449102
2025-01-08 09:35:21.297570816,0.45712489,-0.03781082875196507
2025-01-08 09:35:21.307696128,0.49270445,-0.027572359226427687
2025-01-08 09:35:21.317577984,0.50658798,-0.017066442169151087
2025-01-08 09:35:21.327632896,0.50831592,-0.0062986871090979155
2025-01-08 09:35:21.337629184,0.53349495,0.004725154053525551
2025-01-08 09:35:21.347606784,0.60202372,0.015999190168892865
2025-01-08 09:35:21.357608960,0.670717,0.02751739403266441
2025-01-08 09:35:21.367635968,0.70897669,0.03927360565284427
2025-01-08 09:35:21.377607936,0.74945843,0.051261535586616884
2025-01-08 09:35:21.387620096,0.82085592,0.0634747683453606
2025-01-08 09:35:21.397604864,0.92239457,0.07590676586599468
2025-01-08 09:35:21.407699200,1.0353756,0.08855087104678923
2025-01-08 09:35:21.417944064,1.10139847,0.10140031134572842
2025-01-08 09:35:21.427719168,1.02927506,0.114448202439488
2025-01-08 09:35:21.437697792,0.79778147,0.12768755194106016
2025-01-08 09:35:21.447678208,0.50668412,0.1411112631740236
2025-01-08 09:35:21.457681920,0.26680195,0.15471213900143072
2025-01-08 09:35:21.467670016,0.18088743,0.16848288570725742
2025-01-08 09:35:21.477686784,0.27213705,0.18241611692833423
2025-01-08 09:35:21.487646208,0.35685039,0.19650435763464635
2025-01-08 09:35:21.497718016,0.26731122,0.21074004815587669
2025-01-08 09:35:21.507868160,0.10995859,0.2251155482520336
2025-01-08 09:35:21.518007040,0.07714564,0.2396231412259841
2025-01-08 09:35:21.527749888,0.09672865,0.2542550380757032
2025-01-08 09:35:21.537743104,0.02403226,0.2690033816840097
2025-01-08 09:35:21.547780096,-0.05330265,0.2838602510435638
2025-01-08 09:35:21.557732096,-0.09362537,0.2988176655148664
2025-01-08 09:35:21.567738112,-0.14322376,0.3138675891149945
2025-01-08 09:35:21.577755904,-0.21242362,0.3290019348347865
2025-01-08 09:35:21.587759104,-0.30025733,0.3442125689821803
2025-01-08 09:35:21.597752064,-0.38084769,0.3594913155493972
2025-01-08 09:35:21.607880192,-0.43076211,0.37482996060164314
2025-01-08 09:35:21.618017024,-0.45530689,0.3902202566850036
2025-01-08 09:35:21.628019968,-0.4728567,0.405653927251189
2025-01-08 09:35:21.637911040,-0.49313194,0.42112267109678014
2025-01-08 09:35:21.647939840,-0.5168941,0.43661816681462606
2025-01-08 09:35:21.657938944,-0.52633578,0.4521320772550311
2025-01-08 09:35:21.667906048,-0.52243268,0.46765605399436705
2025-01-08 09:35:21.677764864,-0.50977981,0.483181741808753
2025-01-08 09:35:21.687717888,-0.47714549,0.498700783150426
2025-01-08 09:35:21.697868032,-0.40941429,0.514204822624444
2025-01-08 09:35:21.707855104,-0.33058441,0.5296855114633526
2025-01-08 09:35:21.717950208,-0.26108629,0.5451345119974516
2025-01-08 09:35:21.727969024,-0.20848954,0.560543502118304
2025-01-08 09:35:21.737858048,-0.14248967,0.5759041797331333
2025-01-08 09:35:21.747942912,-0.03696436,0.5912082672077577
2025-01-08 09:35:21.757876992,0.10296243,0.6064475157957232
2025-01-08 09:35:21.767927040,0.24530822,0.6216137100513013
2025-01-08 09:35:21.778141952,0.35976589,0.6366986722240314
2025-01-08 09:35:21.788006912,0.43406397,0.6516942666324896
2025-01-08 09:35:21.797921024,0.4789384,0.6665924040149933
2025-01-08 09:35:21.807860992,0.52057195,0.681385045854948
2025-01-08 09:35:21.818049792,0.60201228,0.6960642086785653
2025-01-08 09:35:21.827987968,0.70993793,0.7106219683227039
2025-01-08 09:35:21.838046976,0.80364603,0.7250504641705794
2025-01-08 09:35:21.847998976,0.88993835,0.7393419033531383
2025-01-08 09:35:21.858066176,0.98424125,0.753488564913882
2025-01-08 09:35:21.867988992,1.06600547,0.7674828039349648
2025-01-08 09:35:21.877960960,1.10879898,0.7813170556224033
2025-01-08 09:35:21.888187904,1.11919975,0.7949838393482594
2025-01-08 09:35:21.897960960,1.1257093,0.808475762647687
2025-01-08 09:35:21.908056064,1.13854074,0.8217855251687429
2025-01-08 09:35:21.918217984,1.17298055,0.8349059225729097
2025-01-08 09:35:21.928088064,1.20392537,0.8478298503842863
2025-01-08 09:35:21.938065152,1.18538284,0.8605503077854372
2025-01-08 09:35:21.948045056,1.11959028,0.8730604013579242
2025-01-08 09:35:21.957981952,1.05692565,0.885353348765566
2025-01-08 09:35:21.968035072,1.03288054,0.8974224823785085
2025-01-08 09:35:21.978016000,1.02725589,0.9092612528362166
2025-01-08 09:35:21.988071936,1.00270498,0.9208632325475337
2025-01-08 09:35:21.998075136,0.89622408,0.932222119125985
2025-01-08 09:35:22.008058112,0.76888537,0.943331738758543
2025-01-08 09:35:22.018106880,0.67707312,0.9541860495060979
2025-01-08 09:35:22.028229120,0.52565509,0.9647791445339218
2025-01-08 09:35:22.038095104,0.24580872,0.9751052552704482
2025-01-08 09:35:22.048093952,-0.10712099,0.9851587544927286
2025-01-08 09:35:22.058123008,-0.49472618,0.9949341593369617
2025-01-08 09:35:22.068140032,-0.89672971,1.0044261342325407
2025-01-08 09:35:22.078170112,-1.27962625,1.013629493758092
2025-01-08 09:35:22.088165120,-1.64962673,1.0225392054180287
2025-01-08 09:35:22.098124032,-1.9425782,1.031150392338185
2025-01-08 09:35:22.108125952,-2.06866622,1.0394583358791303
2025-01-08 09:35:22.118146048,-2.07368779,1.0474584781658156
2025-01-08 09:35:22.128201984,-2.01471663,1.05514642453225
2025-01-08 09:35:22.138104832,-1.93995845,1.0625179458799308
2025-01-08 09:35:22.148196864,-1.80557573,1.0695689809488265
2025-01-08 09:35:22.158469888,-1.51334548,1.0762956384997295
2025-01-08 09:35:22.168407808,-1.13466215,1.0826941994068604
2025-01-08 09:35:22.178062848,-0.79331034,1.0887611186596384
2025-01-08 09:35:22.189246976,-0.47853947,1.0944930272725981
2025-01-08 09:35:22.198244096,0.03474557,1.0998867341024594
2025-01-08 09:35:22.208297984,0.67482924,1.1049392275714243
2025-01-08 09:35:22.218269952,1.23000836,1.1096476772958086
2025-01-08 09:35:22.228276992,1.88448775,1.1140094356191823
2025-01-08 09:35:22.238217984,2.70270109,1.1180220390492197
2025-01-08 09:35:22.248235008,3.52119207,1.1216832095975346
2025-01-08 09:35:22.258269952,4.20187235,1.124990856021809
2025-01-08 09:35:22.268225792,4.66943645,1.1279430749695816
2025-01-08 09:35:22.278295040,5.08261251,1.1305381520231124
2025-01-08 09:35:22.288250880,5.27693272,1.1327745626447885
2025-01-08 09:35:22.298268160,5.13747931,1.1346509730225978
2025-01-08 09:35:22.308325888,4.89646912,1.1361662408152269
2025-01-08 09:35:22.318355968,4.68068314,1.1373194157964228
2025-01-08 09:35:22.328388096,4.34982872,1.1381097403982765
2025-01-08 09:35:22.338351104,3.94723749,1.1385366501531697
2025-01-08 09:35:22.348361984,3.55832601,1.1385997740341516
2025-01-08 09:35:22.358406912,3.17882538,1.1382989346935868
2025-01-08 09:35:22.368321792,2.89685345,1.1376341485999504
2025-01-08 09:35:22.378406144,2.87419057,1.1366056260727126
2025-01-08 09:35:22.388366848,3.0064714,1.1352137712152974
2025-01-08 09:35:22.398420992,2.96854901,1.133459181746161
2025-01-08 09:35:22.408595200,2.86183548,1.1313426487280756
2025-01-08 09:35:22.418626048,2.78003788,1.128865156195774
2025-01-08 09:35:22.428476160,2.53236008,1.1260278806821475
2025-01-08 09:35:22.438601984,2.21131754,1.1228321906432481
2025-01-08 09:35:22.448462848,1.96551347,1.1192796457823948
2025-01-08 09:35:22.458498048,1.96821308,1.1153719962737445
2025-01-08 09:35:22.468602880,2.13308549,1.1111111818857244
2025-01-08 09:35:22.478401792,2.14100862,1.1064993310047884
2025-01-08 09:35:22.488556032,1.8525703,1.1015387595600017
2025-01-08 09:35:22.498605056,1.47199178,1.096231969849014
2025-01-08 09:35:22.508377088,1.15637124,1.090581649266028
2025-01-08 09:35:22.518289152,0.91139102,1.0845906689324234
2025-01-08 09:35:22.528288000,0.72578132,1.0782620822307445
2025-01-08 09:35:22.538352896,0.61264837,1.0715991232428097
2025-01-08 09:35:22.548327936,0.57958627,1.0646052050927466
2025-01-08 09:35:22.558334976,0.53216845,1.0572839181958138
2025-01-08 09:35:22.568352000,0.34708685,1.049639028413908
2025-01-08 09:35:22.578320896,0.10445809,1.0416744751187088
2025-01-08 09:35:22.588354048,-0.00703189,1.033394369163458
2025-01-08 09:35:22.598565120,0.02752694,1.024802990764422
2025-01-08 09:35:22.608499968,0.01381128,1.015904787293123
2025-01-08 09:35:22.618531840,-0.11573064,1.006704370980478
2025-01-08 09:35:22.628529920,-0.18385415,0.9972065165340238
2025-01-08 09:35:22.638865920,-0.13014151,0.9874161586694602
2025-01-08 09:35:22.648547840,-0.090496,0.977338389557768
2025-01-08 09:35:22.658498048,-0.14935778,0.9669784561892248
2025-01-08 09:35:22.668503040,-0.20280945,0.9563417576556705
2025-01-08 09:35:22.678582784,-0.10705275,0.9454338423524091
2025-01-08 09:35:22.688570112,0.1121911,0.934260405101198
2025-01-08 09:35:22.698661120,0.2638588,0.922827284195789
2025-01-08 09:35:22.708625152,0.28220677,0.9111404583715427
2025-01-08 09:35:22.718650112,0.25616759,0.8992060437006729
2025-01-08 09:35:22.728619008,0.26707083,0.8870302904147086
2025-01-08 09:35:22.738951936,0.30465633,0.874619579655805
2025-01-08 09:35:22.749022976,0.31660679,0.8619804201585739
2025-01-08 09:35:22.760168192,0.31901693,0.8491194448641272
2025-01-08 09:35:22.768690176,0.34946409,0.8360434074680745
2025-01-08 09:35:22.778656000,0.37754923,0.8227591789042441
2025-01-08 09:35:22.790699008,0.33799985,0.8092737437659275
2025-01-08 09:35:22.798656000,0.23262516,0.7955941966664808
2025-01-08 09:35:22.808595968,0.13961408,0.7817277385411541
2025-01-08 09:35:22.818577152,0.29160061,0.7676816728920348
2025-01-08 09:35:22.828736000,0.71251607,0.7534634019780376
2025-01-08 09:35:22.838622976,1.09962034,0.7390804229518885
2025-01-08 09:35:22.848686080,1.28872597,0.7245403239460827
2025-01-08 09:35:22.858625792,1.18560863,0.7098507801098235
2025-01-08 09:35:22.868726016,0.8331759,0.6950195495989738
2025-01-08 09:35:22.878756096,0.51555878,0.6800544695210708
2025-01-08 09:35:22.888703232,0.36574414,0.6649634518374864
2025-01-08 09:35:22.898746880,0.1984559,0.6497544792248325
2025-01-08 09:35:22.908739072,0.02224454,0.6344356008977298
2025-01-08 09:35:22.918670848,-0.02344216,0.6190149283950841
2025-01-08 09:35:22.928762880,0.10992098,0.6035006313320317
2025-01-08 09:35:22.938703104,0.32313931,0.5879009331197255
2025-01-08 09:35:22.948892160,0.46092612,0.5722241066551642
2025-01-08 09:35:22.958776832,0.56297469,0.5564784699832719
2025-01-08 09:35:22.968795904,0.69891459,0.5406723819334509
2025-01-08 09:35:22.978797824,0.80329537,0.5248142377328522
2025-01-08 09:35:22.988795136,0.84083825,0.5089124645986095
2025-01-08 09:35:22.998760960,0.8295964,0.49297551731130285
2025-01-08 09:35:23.008775936,0.77694798,0.47701187377192306
2025-01-08 09:35:23.018779904,0.72445738,0.4610300305446192
2025-01-08 09:35:23.028815104,0.69839442,0.44503849838751897
2025-01-08 09:35:23.038780928,0.68067032,0.4290457977739181
2025-01-08 09:35:23.049669120,0.66081691,0.41306045440614403
2025-01-08 09:35:23.059105024,0.66161871,0.3970909947243956
2025-01-08 09:35:23.068804864,0.66851908,0.38114594141287367
2025-01-08 09:35:23.078856960,0.67612201,0.36523380890551543
2025-01-08 09:35:23.088763904,0.69043618,0.349363098893642
2025-01-08 09:35:23.098717952,0.68458265,0.3335422958378392
2025-01-08 09:35:23.108713984,0.6457361,0.31777986248637896
2025-01-08 09:35:23.118772992,0.58799171,0.3020842354024972
2025-01-08 09:35:23.128772096,0.5288741,0.28646382050282926
2025-01-08 09:35:23.138789888,0.47521311,0.27092698860931363
2025-01-08 09:35:23.148806144,0.42761344,0.2554820710168527
2025-01-08 09:35:23.159232000,0.38614625,0.24013735507902675
2025-01-08 09:35:23.169025024,0.33967096,0.22490107981414315
2025-01-08 09:35:23.178883072,0.28300059,0.2097814315338898
2025-01-08 09:35:23.188922880,0.23058283,0.19478653949686137
2025-01-08 09:35:23.198974976,0.18688041,0.17992447158920927
2025-01-08 09:35:23.208992000,0.13973516,0.16520323003465093
2025-01-08 09:35:23.219005952,0.07162774,0.1506307471360709
2025-01-08 09:35:23.229041152,-0.02747065,0.13621488105092142
2025-01-08 09:35:23.238919936,-0.14009386,0.12196341160261821
2025-01-08 09:35:23.248996096,-0.25335205,0.10788403613011337
2025-01-08 09:35:23.258945024,-0.35243207,0.09398436537780583
2025-01-08 09:35:23.268913920,-0.43242425,0.08027191942792955
2025-01-08 09:35:23.278803968,-0.498483,0.06675412367754496
2025-01-08 09:35:23.288707072,-0.55695397,0.05343830486223655
2025-01-08 09:35:23.298842880,-0.61331671,0.04033168712858926
2025-01-08 09:35:23.308808192,-0.67509794,0.027441388157508264
2025-01-08 09:35:23.318887936,-0.73458737,0.01477441534041017
2025-01-08 09:35:23.328862976,-0.77231216,0.0023376620102923185
2025-01-08 09:35:23.338942976,-0.77799022,-0.009862096270336755
2025-01-08 09:35:23.348875008,-0.75787395,-0.021818205362711195
2025-01-08 09:35:23.358969088,-0.73879188,-0.03352413614432494
2025-01-08 09:35:23.369085952,-0.71505308,-0.0449734880388083
2025-01-08 09:35:23.379055104,-0.65790707,-0.056159992481303135
2025-01-08 09:35:23.389076992,-0.56279594,-0.06707751631749784
2025-01-08 09:35:23.399087872,-0.44808394,-0.07772006513451982
2025-01-08 09:35:23.408932864,-0.31075978,-0.08808178652191173
2025-01-08 09:35:23.419099136,-0.13453543,-0.09815697326095829
2025-01-08 09:35:23.429086976,0.10143048,-0.10794006644065686
2025-01-08 09:35:23.439092992,0.39329731,-0.1174256584986667
2025-01-08 09:35:23.449116928,0.72016072,-0.12660849618560557
2025-01-08 09:35:23.459099136,0.98535419,-0.13548348345109923
2025-01-08 09:35:23.469101056,1.02999568,-0.14404568425002762
2025-01-08 09:35:23.479095040,0.77096456,-0.15229032526745237
2025-01-08 09:35:23.490406144,0.41702402,-0.16021279856074605
2025-01-08 09:35:23.499161856,0.11164987,-0.16780866411748582
2025-01-08 09:35:23.509128960,-0.12344772,-0.17507365232771857
2025-01-08 09:35:23.521445888,-0.29290164,-0.18200366636923812
2025-01-08 09:35:23.529263104,-0.38877165,-0.18859478450456593
2025-01-08 09:35:23.539329024,-0.42480439,-0.19484326228836676
2025-01-08 09:35:23.549181952,-0.43668431,-0.20074553468407277
2025-01-08 09:35:23.559122176,-0.45927763,-0.20629821808853582
2025-01-08 09:35:23.569454848,-0.49393594,-0.21149811226357637
2025-01-08 09:35:23.579088896,-0.52669793,-0.21634220217333447
2025-01-08 09:35:23.589382912,-0.54723084,-0.22082765972638413
2025-01-08 09:35:23.599096064,-0.55006456,-0.22495184542161298
2025-01-08 09:35:23.609160960,-0.54336876,-0.2287123098969201
2025-01-08 09:35:23.619136000,-0.52225757,-0.2321067953798311
2025-01-08 09:35:23.629172992,-0.48564798,-0.235133237039178
2025-01-08 09:35:23.639260928,-0.4415825,-0.23778976423704345
2025-01-08 09:35:23.649129984,-0.40680081,-0.2400747016802135
2025-01-08 09:35:23.659308032,-0.39074475,-0.24198657047043665
2025-01-08 09:35:23.669369088,-0.39195317,-0.24352408905283854
2025-01-08 09:35:23.679287040,-0.40121883,-0.24468617406188473
2025-01-08 09:35:23.689259008,-0.40762174,-0.24547194106434783
2025-01-08 09:35:23.699260928,-0.4029972,-0.2458807051987736
2025-01-08 09:35:23.709275904,-0.38305169,-0.24591198171100204
2025-01-08 09:35:23.719297024,-0.34324706,-0.24556548638534517
2025-01-08 09:35:23.729324032,-0.30159301,-0.2448411358710823
2025-01-08 09:35:23.739290880,-0.26597524,-0.24373904790397846
2025-01-08 09:35:23.749316864,-0.21940517,-0.24225954142259165
2025-01-08 09:35:23.759335936,-0.14930934,-0.2404031365791819
2025-01-08 09:35:23.769524992,-0.06724232,-0.23817055464509387
2025-01-08 09:35:23.779319040,0.02434039,-0.23556271781053417
2025-01-08 09:35:23.789308160,0.12923515,-0.2325807488787177
2025-01-08 09:35:23.799351040,0.21893764,-0.22922597085441604
2025-01-08 09:35:23.809376000,0.25439101,-0.22549990642698897
2025-01-08 09:35:23.819354112,0.22493172,-0.22140427734803753
2025-01-08 09:35:23.829447936,0.17529982,-0.2169410037038685
2025-01-08 09:35:23.839399168,0.13518566,-0.21211220308301776
2025-01-08 09:35:23.849359104,0.10549825,-0.20692018963912737
2025-01-08 09:35:23.859389184,0.0756703,-0.20136747304953567
2025-01-08 09:35:23.870480128,0.04603881,-0.19545675736997872
2025-01-08 09:35:23.879392000,0.03324705,-0.18919093978586837
2025-01-08 09:35:23.889399040,0.05337894,-0.18257310926066053
2025-01-08 09:35:23.899561984,0.09847939,-0.1756065450818791
2025-01-08 09:35:23.909460992,0.15299326,-0.16829471530541273
2025-01-08 09:35:23.919465984,0.20600045,-0.1606412750987664
2025-01-08 09:35:23.929486080,0.25970048,-0.15265006498398176
2025-01-08 09:35:23.939495168,0.31409591,-0.14432510898101567
2025-01-08 09:35:23.949476096,0.37357312,-0.1356706126524002
2025-01-08 09:35:23.959429888,0.43606627,-0.12669096105006925
2025-01-08 09:35:23.969438976,0.49851274,-0.11739071656528562
2025-01-08 09:35:23.979474176,0.53576624,-0.10777461668265505
2025-01-08 09:35:23.989476864,0.54799652,-0.0978475716392612
2025-01-08 09:35:23.999529984,0.56863737,-0.0876146619900092
2025-01-08 09:35:24.009530112,0.62312222,-0.07708113608031594
2025-01-08 09:35:24.019539200,0.69538468,-0.06625240742733042
2025-01-08 09:35:24.029712896,0.76230931,-0.055134052010921385
2025-01-08 09:35:24.039673088,0.81620961,-0.04373180547571754
2025-01-08 09:35:24.049641984,0.91972148,-0.03205156024552715
2025-01-08 09:35:24.059638016,1.11202252,-0.020099362551522525
2025-01-08 09:35:24.069664000,1.32800794,-0.007881409375612061
2025-01-08 09:35:24.079674112,1.46048021,0.004595954689526797
2025-01-08 09:35:24.089537024,1.35437846,0.017326240662236553
2025-01-08 09:35:24.099610112,0.99567854,0.030302818473923337
2025-01-08 09:35:24.109497088,0.59700024,0.04351892034975448
2025-01-08 09:35:24.119467008,0.30973601,0.05696764426635237
2025-01-08 09:35:24.129507072,0.22165427,0.07064195748479349
2025-01-08 09:35:24.139812096,0.27367985,0.08453470015717653
2025-01-08 09:35:24.150497792,0.21959278,0.09863858900498337
2025-01-08 09:35:24.159877120,-0.00789008,0.11294622106741005
2025-01-08 09:35:24.169792768,-0.18078214,0.12745007751781542
2025-01-08 09:35:24.179574016,-0.08280864,0.1421425275463878
2025-01-08 09:35:24.189585920,0.15569058,0.1570158323070947
2025-01-08 09:35:24.199636992,0.26484948,0.17206214892694605
2025-01-08 09:35:24.209646848,0.17870015,0.18727353457555962
2025-01-08 09:35:24.219783936,0.01027554,0.20264195059298737
2025-01-08 09:35:24.229595904,-0.11639035,0.21815926667372473
2025-01-08 09:35:24.239748864,-0.1708684,0.23381726510479062
2025-01-08 09:35:24.249635840,-0.19788772,0.2496076450557343
2025-01-08 09:35:24.259623936,-0.24656999,0.2655220269183972
2025-01-08 09:35:24.269673984,-0.31402969,0.28155195669421923
2025-01-08 09:35:24.279726080,-0.36752403,0.29768891042685813
2025-01-08 09:35:24.289796096,-0.39926785,0.31392429867785937
2025-01-08 09:35:24.299691008,-0.41254669,0.33024947104308533
2025-01-08 09:35:24.309724928,-0.40561789,0.3466557207075842
2025-01-08 09:35:24.319747840,-0.39304078,0.36313428903656614
2025-01-08 09:35:24.329710848,-0.38182074,0.3796763702001108
2025-01-08 09:35:24.339747840,-0.35546553,0.3962731158292265
2025-01-08 09:35:24.349696000,-0.30535465,0.4129156397008499
2025-01-08 09:35:24.359728128,-0.23631024,0.42959502244935377
2025-01-08 09:35:24.369883904,-0.16154927,0.4463023163021168
2025-01-08 09:35:24.379697152,-0.10662884,0.46302854983669023
2025-01-08 09:35:24.389828864,-0.08408952,0.47976473275707304
2025-01-08 09:35:24.399768064,-0.07504845,0.49650186068660224
2025-01-08 09:35:24.409803008,-0.06352758,0.5132309199749415
2025-01-08 09:35:24.419759104,-0.05711627,0.5299428925166453
2025-01-08 09:35:24.429803008,-0.05122769,0.5466287605787576
2025-01-08 09:35:24.439843840,-0.04454219,0.5632795116348992
2025-01-08 09:35:24.449788160,-0.04206783,0.579886143203287
2025-01-08 09:35:24.459789056,-0.03060526,0.5964396676861182
2025-01-08 09:35:24.469830912,0.01515734,0.6129311172077502
2025-01-08 09:35:24.479805952,0.08046871,0.6293515484490974
2025-01-08 09:35:24.489878784,0.14579189,0.6456920474756679
2025-01-08 09:35:24.499849984,0.20983732,0.661943734556652
2025-01-08 09:35:24.509893888,0.27958781,0.6780977689724842
2025-01-08 09:35:24.519866880,0.34116924,0.694145353808291
2025-01-08 09:35:24.529891072,0.38697672,0.7100777407306408
2025-01-08 09:35:24.539917056,0.44045931,0.7258862347450238
2025-01-08 09:35:24.549891840,0.49881035,0.7415621989314767
2025-01-08 09:35:24.559822080,0.53493983,0.7570970591557903
2025-01-08 09:35:24.569876992,0.56374675,0.772482308753735
2025-01-08 09:35:24.579911936,0.59828043,0.7877095131857478
2025-01-08 09:35:24.590601984,0.67587388,0.8027703146595387
2025-01-08 09:35:24.600039936,0.78038067,0.817656436718087
2025-01-08 09:35:24.609960960,0.85795647,0.8323596887904936
2025-01-08 09:35:24.619906816,0.91071129,0.8468719707032003
2025-01-08 09:35:24.629914112,0.99813116,0.8611852771490698
2025-01-08 09:35:24.639962880,1.12156403,0.8752917021118567
2025-01-08 09:35:24.649929984,1.28850436,0.8891834432436123
2025-01-08 09:35:24.659943168,1.47389054,0.9028528061925883
2025-01-08 09:35:24.669949952,1.65184367,0.9162922088792126
2025-01-08 09:35:24.679985152,1.72069633,0.9294941857177522
2025-01-08 09:35:24.689974016,1.66052878,0.9424513917812872
2025-01-08 09:35:24.700061184,1.68955827,0.9551566069076459
2025-01-08 09:35:24.710067968,1.83805656,0.9676027397439846
2025-01-08 09:35:24.719837952,1.89139485,0.9797828317277169
2025-01-08 09:35:24.730227968,1.6341908,0.9916900610015242
2025-01-08 09:35:24.740151808,1.12483776,1.0033177462602143
2025-01-08 09:35:24.749979136,0.55660689,1.0146593505272306
2025-01-08 09:35:24.760119808,-0.05966759,1.0257084848586242
2025-01-08 09:35:24.770040064,-0.77271646,1.0364589119723706
2025-01-08 09:35:24.780057856,-1.50569248,1.0469045498009144
2025-01-08 09:35:24.790072064,-2.05086517,1.0570394749648815
2025-01-08 09:35:24.800116992,-2.34094858,1.066857926165929
2025-01-08 09:35:24.810123008,-2.52771616,1.0763543074967457
2025-01-08 09:35:24.820090112,-2.64099956,1.085523191666245
2025-01-08 09:35:24.829993984,-2.61528444,1.0943593231380535
2025-01-08 09:35:24.840056832,-2.36451793,1.1028576211804173
2025-01-08 09:35:24.850255872,-1.91730726,1.1110131828257088
2025-01-08 09:35:24.860184832,-1.46087086,1.1188212857377557
2025-01-08 09:35:24.870220032,-1.04230237,1.1262773909852561
2025-01-08 09:35:24.880705024,-0.66309434,1.1333771457195962
2025-01-08 09:35:24.890185984,-0.28020948,1.1401163857554308
2025-01-08 09:35:24.900655104,0.13947439,1.146491138052439
2025-01-08 09:35:24.911698944,0.60011494,1.1524976230967126
2025-01-08 09:35:24.920083968,1.28770268,1.1581322571802917
2025-01-08 09:35:24.932628992,2.02922177,1.1633916545774101
2025-01-08 09:35:24.940327936,2.7963407,1.168272629616062
2025-01-08 09:35:24.950278912,3.6580193,1.1727721986435693
2025-01-08 09:35:24.960408832,4.40015745,1.1768875818848645
2025-01-08 09:35:24.970134016,4.99829817,1.1806162051922744
2025-01-08 09:35:24.980190976,5.55731964,1.1839557016856406
2025-01-08 09:35:24.990159872,5.62858963,1.1869039132816688
2025-01-08 09:35:25.000219136,5.41804457,1.189458892111461
2025-01-08 09:35:25.010301184,5.13334751,1.1916189018252374
2025-01-08 09:35:25.020216832,4.69136858,1.193382418783324
2025-01-08 09:35:25.030152960,4.25980759,1.1947481331325287
2025-01-08 09:35:25.040264960,3.84177732,1.1957149497671027
2025-01-08 09:35:25.050259200,3.46522522,1.196281989173538
2025-01-08 09:35:25.060174848,3.12591672,1.1964485881585154
2025-01-08 09:35:25.070252032,2.92036057,1.196214300459382
2025-01-08 09:35:25.080135936,2.7799201,1.1955788972365944
2025-01-08 09:35:25.090224896,2.63932014,1.1945423674476408
2025-01-08 09:35:25.100239104,2.70933676,1.1931049181020041
2025-01-08 09:35:25.110284032,2.60654449,1.1912669743967998
2025-01-08 09:35:25.120261888,2.27003741,1.1890291797327928
2025-01-08 09:35:25.130206208,2.13125801,1.1863923956105507
2025-01-08 09:35:25.140305152,2.10599828,1.18335770140657
2025-01-08 09:35:25.150324992,2.06541777,1.1799263940292686
2025-01-08 09:35:25.160315904,2.12252331,1.1760999874548057
2025-01-08 09:35:25.170336000,2.12816882,1.171880212142764
2025-01-08 09:35:25.180347904,1.9825213,1.167269014331787
2025-01-08 09:35:25.190305024,1.70220935,1.1622685552153325
2025-01-08 09:35:25.200321792,1.42286742,1.1568812099977814
2025-01-08 09:35:25.210370048,1.25420475,1.1511095668311913
2025-01-08 09:35:25.220338176,1.15647769,1.1449564256330647
2025-01-08 09:35:25.230330112,1.06611645,1.1384247967855636
2025-01-08 09:35:25.240395008,0.97779989,1.131517899716672
2025-01-08 09:35:25.250408960,0.90355986,1.1242391613638687
2025-01-08 09:35:25.260417024,0.81280345,1.1165922145209533
2025-01-08 09:35:25.270405120,0.66992259,1.108580896068717
2025-01-08 09:35:25.280368128,0.48179966,1.1002092450902357
2025-01-08 09:35:25.290385920,0.30531508,1.0914815008716119
2025-01-08 09:35:25.300384000,0.24330033,1.0824021007890756
2025-01-08 09:35:25.310328064,0.26809788,1.0729756780834028
2025-01-08 09:35:25.320463872,0.27360395,1.0632070595226892
2025-01-08 09:35:25.330362112,0.24678588,1.0531012629545793
2025-01-08 09:35:25.340462848,0.23014066,1.0426634947491091
2025-01-08 09:35:25.350477056,0.23353985,1.0318991471333936
2025-01-08 09:35:25.360455936,0.24528499,1.020813795419449
2025-01-08 09:35:25.370465024,0.24086222,1.009413195126508
2025-01-08 09:35:25.380476928,0.14556625,0.9977032789992407
2025-01-08 09:35:25.390508800,0.0165424,0.9856901539233692
2025-01-08 09:35:25.400451840,-0.05017269,0.9733800977402064
2025-01-08 09:35:25.410450944,-0.00246322,0.960779555961735
2025-01-08 09:35:25.420463104,0.13460526,0.9478951383878794
2025-01-08 09:35:25.430408960,0.27275029,0.9347336156276985
2025-01-08 09:35:25.440471808,0.34803554,0.9213019155262776
2025-01-08 09:35:25.450569984,0.39341518,0.9076071194991598
2025-01-08 09:35:25.460547840,0.42100522,0.8936564587762129
2025-01-08 09:35:25.470571008,0.41240913,0.8794573105568798
2025-01-08 09:35:25.480592896,0.41395211,0.8650171940788275
2025-01-08 09:35:25.490565888,0.39094022,0.8503437666020436
2025-01-08 09:35:25.500540928,0.2718524,0.8354448193105064
2025-01-08 09:35:25.510531072,0.11179551,0.8203282731335857
2025-01-08 09:35:25.520584192,0.0560537,0.8050021744893944
2025-01-08 09:35:25.530502144,0.38261244,0.7894746909523591
2025-01-08 09:35:25.545609984,1.05861902,0.7737541068473197
2025-01-08 09:35:25.550822144,1.53053665,0.7578488187725266
2025-01-08 09:35:25.560566016,1.284706,0.74176733105394
2025-01-08 09:35:25.570508032,0.70897657,0.7255182511332849
2025-01-08 09:35:25.580594176,0.45024315,0.7091102848923643
2025-01-08 09:35:25.590502912,0.38559473,0.6925522319161608
2025-01-08 09:35:25.601038080,0.31369513,0.6758529806973175
2025-01-08 09:35:25.610664960,0.34771657,0.6590215037846098
2025-01-08 09:35:25.620594944,0.56441486,0.642066852878073
2025-01-08 09:35:25.630533888,0.73649383,0.6249981538734746
2025-01-08 09:35:25.640707072,0.71245444,0.6078246018588673
2025-01-08 09:35:25.650708992,0.63697982,0.5905554560659833
2025-01-08 09:35:25.660589056,0.64937484,0.573200034779266
2025-01-08 09:35:25.670661888,0.67803806,0.5557677102053696
2025-01-08 09:35:25.680804864,0.6804195,0.5382679033059782
2025-01-08 09:35:25.690684160,0.69494897,0.5207100785968324
2025-01-08 09:35:25.700697856,0.73699713,0.5031037389158693
2025-01-08 09:35:25.710731008,0.79012001,0.4854584201634136
2025-01-08 09:35:25.721713920,0.81750095,0.46778368601737425
2025-01-08 09:35:25.730845952,0.80966824,0.4500891226264241
2025-01-08 09:35:25.740716032,0.78085524,0.4323843332841602
2025-01-08 09:35:25.750593792,0.75081444,0.4146789330872617
2025-01-08 09:35:25.760683008,0.72257936,0.39698254358066937
2025-01-08 09:35:25.770756864,0.68551767,0.379304787392839
2025-01-08 09:35:25.780806912,0.63411635,0.3616552828641198
2025-01-08 09:35:25.790759936,0.58331418,0.3440436386713275
2025-01-08 09:35:25.800749056,0.52638954,0.32647944845158783
2025-01-08 09:35:25.810746880,0.44717133,0.30897228542853566
2025-01-08 09:35:25.820787968,0.35490537,0.29153169704395315
2025-01-08 09:35:25.830817024,0.26823521,0.27416719959794356
2025-01-08 09:35:25.840787968,0.18268651,0.256888272900734
2025-01-08 09:35:25.850838784,0.09343553,0.2397043549391938
2025-01-08 09:35:25.860846080,0.00616127,0.22262483656116763
2025-01-08 09:35:25.870810112,-0.07496774,0.2056590561807044
2025-01-08 09:35:25.880865024,-0.14582014,0.18881629450726586
2025-01-08 09:35:25.891636992,-0.20696658,0.17210576930198648
2025-01-08 09:35:25.900839168,-0.26239574,0.15553663016404892
2025-01-08 09:35:25.911014912,-0.31395787,0.1391179533502278
2025-01-08 09:35:25.920846848,-0.37971807,0.12285873663064037
2025-01-08 09:35:25.930900224,-0.46206152,0.10676789418372862
2025-01-08 09:35:25.940905216,-0.53741926,0.09085425153347826
2025-01-08 09:35:25.950889216,-0.59190577,0.07512654053186435
2025-01-08 09:35:25.960852992,-0.62898868,0.059593394389491745
2025-01-08 09:35:25.970830848,-0.67748475,0.044263342757371454
2025-01-08 09:35:25.980870912,-0.7150597,0.029144806862759394
2025-01-08 09:35:25.990884096,-0.73240292,0.014246094701946467
2025-01-08 09:35:26.000897792,-0.72832483,-0.00042460370712900993
2025-01-08 09:35:26.010916864,-0.72012252,-0.014859221009612514
2025-01-08 09:35:26.020946944,-0.73561645,-0.02904981713300111
2025-01-08 09:35:26.031136000,-0.7636292,-0.042988583838177226
2025-01-08 09:35:26.040930048,-0.78932154,-0.05666784919946945
2025-01-08 09:35:26.050930944,-0.8064298,-0.07008008201104243
2025-01-08 09:35:26.060934912,-0.81397259,-0.08321789611695161
2025-01-08 09:35:26.070952960,-0.79515707,-0.09607405466224452
2025-01-08 09:35:26.080972032,-0.75171947,-0.1086414742625258
2025-01-08 09:35:26.090998016,-0.71591413,-0.12091322908945133
2025-01-08 09:35:26.100985088,-0.68407899,-0.13288255486966277
2025-01-08 09:35:26.111016960,-0.63051653,-0.1445428527947128
2025-01-08 09:35:26.120978176,-0.53399318,-0.1558876933395936
2025-01-08 09:35:26.130888960,-0.40224469,-0.16691081998751547
2025-01-08 09:35:26.141069824,-0.24365294,-0.17760615285864575
2025-01-08 09:35:26.150952960,-0.05799198,-0.18796779224056798
2025-01-08 09:35:26.160944896,0.12281138,-0.19799002201826968
2025-01-08 09:35:26.172027136,0.24660373,-0.20766731300153593
2025-01-08 09:35:26.180975872,0.28231776,-0.21699432614766845
2025-01-08 09:35:26.191011072,0.26763952,-0.22596591567752178
2025-01-08 09:35:26.201015040,0.22675294,-0.2345771320829001
2025-01-08 09:35:26.211067904,0.15576452,-0.24282322502342094
2025-01-08 09:35:26.221075968,0.0706268,-0.25069964611102047
2025-01-08 09:35:26.231060992,-0.02245778,-0.25820205158033205
2025-01-08 09:35:26.241164032,-0.10918987,-0.26532630484323594
2025-01-08 09:35:26.251097088,-0.17074841,-0.2720684789259536
2025-01-08 09:35:26.261063168,-0.2075904,-0.2784248587871119
2025-01-08 09:35:26.271076864,-0.24243957,-0.2843919435152866
2025-01-08 09:35:26.281042944,-0.29669785,-0.2899664484045954
2025-01-08 09:35:26.291120896,-0.35296041,-0.29514530690698276
2025-01-08 09:35:26.301122816,-0.38507855,-0.2999256724599145
2025-01-08 09:35:26.311106816,-0.37825298,-0.30430492018826916
2025-01-08 09:35:26.321669120,-0.33175468,-0.3082806484792863
2025-01-08 09:35:26.331108096,-0.27634484,-0.3118506804295108
2025-01-08 09:35:26.341371136,-0.2532655,-0.31501306516274336
2025-01-08 09:35:26.352264960,-0.26131833,-0.31776607901808485
2025-01-08 09:35:26.361175040,-0.27919364,-0.32010822660724075
2025-01-08 09:35:26.371177984,-0.28628814,-0.32203824174032497
2025-01-08 09:35:26.381202944,-0.28196323,-0.3235550882194862
2025-01-08 09:35:26.391217920,-0.27291936,-0.3246579604997549
2025-01-08 09:35:26.401232896,-0.26896054,-0.32534628421658773
2025-01-08 09:35:26.411209216,-0.26991624,-0.3256197165796705
2025-01-08 09:35:26.421210880,-0.28046083,-0.32547814663261304
2025-01-08 09:35:26.431236864,-0.30013603,-0.3249216953782605
2025-01-08 09:35:26.441231104,-0.31558168,-0.323950715769416
2025-01-08 09:35:26.451239936,-0.31706262,-0.3225657925648556
2025-01-08 09:35:26.461200896,-0.30800891,-0.3207677420506024
2025-01-08 09:35:26.471406848,-0.28973591,-0.31855761162649565
2025-01-08 09:35:26.481329920,-0.25704396,-0.3159366792581872
2025-01-08 09:35:26.491361024,-0.20559055,-0.3129064527947676
2025-01-08 09:35:26.501348096,-0.12746537,-0.30946866915231347
2025-01-08 09:35:26.511346944,-0.03973818,-0.30562529336372374
2025-01-08 09:35:26.521387008,0.03405356,-0.3013785174953009
2025-01-08 09:35:26.531321088,0.08604515,-0.29673075943060623
2025-01-08 09:35:26.541328896,0.11571532,-0.29168466152220757
2025-01-08 09:35:26.551217920,0.1318112,-0.2862430891120139
2025-01-08 09:35:26.561428992,0.15876025,-0.2804091289209754
2025-01-08 09:35:26.571290112,0.21807444,-0.2741860873090018
2025-01-08 09:35:26.581292032,0.29071629,-0.26757748840604295
2025-01-08 09:35:26.591290880,0.33265096,-0.2605870721153427
2025-01-08 09:35:26.601309184,0.3284629,-0.25321879198996555
2025-01-08 09:35:26.611301888,0.29501992,-0.2454768129837694
2025-01-08 09:35:26.621349120,0.26476759,-0.23736550907807574
2025-01-08 09:35:26.631314944,0.25194389,-0.22888946078537073
2025-01-08 09:35:26.641336832,0.25639957,-0.22005345253143735
2025-01-08 09:35:26.651364096,0.27248871,-0.21086246991740765
2025-01-08 09:35:26.661340928,0.29252654,-0.20132169686328716
2025-01-08 09:35:26.671375872,0.31668854,-0.19143651263458333
2025-01-08 09:35:26.681361920,0.35179883,-0.18121248875374618
2025-01-08 09:35:26.691375104,0.41355866,-0.17065538579819134
2025-01-08 09:35:26.701405952,0.50431031,-0.1597711500867593
2025-01-08 09:35:26.711385856,0.60462481,-0.1485659102565257
2025-01-08 09:35:26.721411840,0.68373299,-0.1370459737319504
2025-01-08 09:35:26.731409920,0.72123647,-0.12521782308842064
2025-01-08 09:35:26.741473024,0.73724198,-0.11308811231231015
2025-01-08 09:35:26.751468032,0.73434103,-0.1006636629597395
2025-01-08 09:35:26.761441024,0.73981613,-0.08795146021629359
2025-01-08 09:35:26.771465984,0.81274289,-0.0749586488600046
2025-01-08 09:35:26.781447936,0.9661237,-0.06169252912998061
2025-01-08 09:35:26.791450112,1.14401448,-0.04816055250311417
2025-01-08 09:35:26.801696000,1.23300672,-0.03437031738136442
2025-01-08 09:35:26.811582208,1.14407921,-0.020329564692165177
2025-01-08 09:35:26.821443072,0.87428141,-0.006046173404564606
2025-01-08 09:35:26.831438080,0.59755129,0.008471844036239037
2025-01-08 09:35:26.841510144,0.44294089,0.023216346353258994
2025-01-08 09:35:26.851504128,0.4256013,0.03817906815820755
2025-01-08 09:35:26.861474048,0.3898927,0.053351624745301605
2025-01-08 09:35:26.871608064,0.15086171,0.06872551695552519
2025-01-08 09:35:26.881710080,-0.16134846,0.08429213610844134
2025-01-08 09:35:26.891494912,-0.23190334,0.10004276899860645
2025-01-08 09:35:26.901502976,0.01350671,0.11596860295359433
2025-01-08 09:35:26.911545088,0.21656603,0.1320607309506001
2025-01-08 09:35:26.921499136,0.16927126,0.14831015678855095
2025-01-08 09:35:26.931517952,0.05251747,0.16470780031262552
2025-01-08 09:35:26.942971904,-0.02444029,0.18124450268803352
2025-01-08 09:35:26.951627008,-0.09315568,0.1979110317198882
2025-01-08 09:35:26.961586944,-0.20584321,0.21469808721596956
2025-01-08 09:35:26.971677952,-0.32967627,0.23159630638914552
2025-01-08 09:35:26.981600000,-0.4079029,0.24859626929619522
2025-01-08 09:35:26.995076864,-0.44167572,0.2656885043097499
2025-01-08 09:35:27.001944064,-0.46344006,0.282863493620057
2025-01-08 09:35:27.011495168,-0.49025613,0.3001116787632301
2025-01-08 09:35:27.021682944,-0.52307463,0.3174234661726564
2025-01-08 09:35:27.031592960,-0.55082142,0.33478923275019834
2025-01-08 09:35:27.041593088,-0.55631888,0.35219933145381577
2025-01-08 09:35:27.051610880,-0.5381633,0.36964409689823446
2025-01-08 09:35:27.061639168,-0.50227433,0.38711385096525974
2025-01-08 09:35:27.071685120,-0.4554854,0.4045989084203449
2025-01-08 09:35:27.081732096,-0.40550095,0.4220895825320022
2025-01-08 09:35:27.091649024,-0.34763652,0.4395761906906565
2025-01-08 09:35:27.101694976,-0.27282763,0.45704906002352935
2025-01-08 09:35:27.111682048,-0.17168021,0.4744985330021491
2025-01-08 09:35:27.121612032,-0.06024873,0.491914973039086
2025-01-08 09:35:27.131622144,0.05094004,0.5092887700705108
2025-01-08 09:35:27.141711104,0.15031046,0.5266103461211961
2025-01-08 09:35:27.151704064,0.21917313,0.5438701608485751
2025-01-08 09:35:27.161675008,0.24703836,0.5610587170624964
2025-01-08 09:35:27.171737856,0.27816933,0.5781665662173219
2025-01-08 09:35:27.181708032,0.346156,0.5951843138730348
2025-01-08 09:35:27.191772928,0.45616722,0.6121026251220392
2025-01-08 09:35:27.201745920,0.57917106,0.628912229978363
2025-01-08 09:35:27.211771136,0.67866379,0.6456039287259868
2025-01-08 09:35:27.221831936,0.74958616,0.6621685972230557
2025-01-08 09:35:27.231735040,0.85965955,0.6785971921587565
2025-01-08 09:35:27.241751808,1.05907154,0.694880756259673
2025-01-08 09:35:27.251780096,1.19703925,0.7110104234424544
2025-01-08 09:35:27.261789952,1.07973886,0.7269774239096864
2025-01-08 09:35:27.271787008,0.84920597,0.7427730891858645
2025-01-08 09:35:27.281959168,0.82059544,0.7583888570904268
2025-01-08 09:35:27.292001024,1.01923656,0.7738162766448369
2025-01-08 09:35:27.301948160,1.26275504,0.7890470129107411
2025-01-08 09:35:27.311939840,1.41370392,0.8040728517562835
2025-01-08 09:35:27.322032896,1.42727995,0.8188857045476913
2025-01-08 09:35:27.331902976,1.35757232,0.833477612763308
2025-01-08 09:35:27.341895168,1.31872547,0.8478407525272789
2025-01-08 09:35:27.351821824,1.3729167,0.8619674390601687
2025-01-08 09:35:27.361777920,1.44668937,0.8758501310438268
2025-01-08 09:35:27.371905024,1.39145231,0.8894814348978733
2025-01-08 09:35:27.381928960,1.23988247,0.9028541089652438
2025-01-08 09:35:27.391913984,1.09942794,0.9159610676042775
2025-01-08 09:35:27.401875968,0.99960804,0.9287953851849005
2025-01-08 09:35:27.411876864,0.91142076,0.9413502999865127
2025-01-08 09:35:27.421908992,0.73236203,0.9536192179952561
2025-01-08 09:35:27.431899136,0.44857991,0.9655957165983938
2025-01-08 09:35:27.441960960,0.10034972,0.9772735481736132
2025-01-08 09:35:27.451951872,-0.26711911,0.9886466435711149
2025-01-08 09:35:27.462001152,-0.68018705,0.9997091154864299
2025-01-08 09:35:27.472104960,-1.17687619,1.0104552617219769
2025-01-08 09:35:27.481889024,-1.63076329,1.0208795683354348
2025-01-08 09:35:27.491819008,-1.95265055,1.0309767126730816
2025-01-08 09:35:27.501952768,-2.12509012,1.0407415662863346
2025-01-08 09:35:27.511992064,-2.18725061,1.0501691977297833
2025-01-08 09:35:27.521956864,-2.25923443,1.0592548752390951
2025-01-08 09:35:27.531980032,-2.27051735,1.0679940692872485
2025-01-08 09:35:27.542017024,-2.05592513,1.0763824550176242
2025-01-08 09:35:27.555618048,-1.82780993,1.084415914552564
2025-01-08 09:35:27.561980928,-1.6589179,1.092090539176086
2025-01-08 09:35:27.572460800,-1.36125875,1.0994026313895322
2025-01-08 09:35:27.581904896,-1.0219841,1.1063487068389928
2025-01-08 09:35:27.591974144,-0.5945726,1.1129254961134465
2025-01-08 09:35:27.601993984,-0.20136386,1.1191299464126316
2025-01-08 09:35:27.612086016,0.15083236,1.124959223083747
2025-01-08 09:35:27.622003968,0.67773211,1.1304107110261694
2025-01-08 09:35:27.632265984,1.38073468,1.135482015963451
2025-01-08 09:35:27.642002176,2.25532556,1.1401709655819545
2025-01-08 09:35:27.652034048,3.14938807,1.1444756105355613
2025-01-08 09:35:27.662051072,3.9297533,1.1483942253159778
2025-01-08 09:35:27.672084992,4.47831249,1.151925308988247
2025-01-08 09:35:27.682097920,5.02786207,1.1550675857911663
2025-01-08 09:35:27.692228096,5.36650229,1.1578200056023846
2025-01-08 09:35:27.702145024,5.37302876,1.1601817442680546
2025-01-08 09:35:27.712116992,5.27522469,1.1621522037969898
2025-01-08 09:35:27.722132992,4.9055891,1.1637310124193683
2025-01-08 09:35:27.732129024,4.42293787,1.1649180245101092
2025-01-08 09:35:27.742102016,4.03246212,1.1657133203771324
2025-01-08 09:35:27.752108032,3.7469449,1.1661172059148062
2025-01-08 09:35:27.762149120,3.37822628,1.166130212122956
2025-01-08 09:35:27.772183040,2.98586535,1.1657530944919146
2025-01-08 09:35:27.782185984,2.74757409,1.1649868322541577
2025-01-08 09:35:27.792704000,2.52106571,1.1638326275031705
2025-01-08 09:35:27.802217984,2.47593951,1.1622919041802644
2025-01-08 09:35:27.812158976,2.53492403,1.1603663069301455
2025-01-08 09:35:27.822160128,2.3328433,1.15805769982613
2025-01-08 09:35:27.832192000,2.12906027,1.1553681649659722
2025-01-08 09:35:27.842255104,2.10344577,1.1523000009393556
2025-01-08 09:35:27.852230144,2.23084211,1.1488557211681851
2025-01-08 09:35:27.862255104,2.31685734,1.145038052120882
2025-01-08 09:35:27.872230144,2.24580073,1.1408499314019844
2025-01-08 09:35:27.882242048,1.98460901,1.13629450571841
2025-01-08 09:35:27.892206080,1.5716362,1.1313751287238358
2025-01-08 09:35:27.902231040,1.24996579,1.126095358742709
2025-01-08 09:35:27.912252928,1.07121527,1.1204589563754903
2025-01-08 09:35:27.922283008,0.92559743,1.1144698819867958
2025-01-08 09:35:27.932292864,0.78011435,1.1081322930781778
2025-01-08 09:35:27.942425856,0.60535419,1.101450541547367
2025-01-08 09:35:27.952302080,0.39628905,1.0944291708358436
2025-01-08 09:35:27.962280960,0.20818622,1.0870729129667036
2025-01-08 09:35:27.972232960,0.07508793,1.0793866854748306
2025-01-08 09:35:27.982287872,-0.01246359,1.0713755882314586
2025-01-08 09:35:27.992286976,-0.0600463,1.0630449001652755
2025-01-08 09:35:28.002343936,-0.09875563,1.0544000758822791
2025-01-08 09:35:28.012273152,-0.13423857,1.0454467421866542
2025-01-08 09:35:28.022337024,-0.11653927,1.0361906945050077
2025-01-08 09:35:28.032360192,-0.08083139,1.0266378932163476
2025-01-08 09:35:28.042376960,-0.04508606,1.0167944598902532
2025-01-08 09:35:28.052329984,0.00436302,1.0066666734357363
2025-01-08 09:35:28.062330112,0.0371626,0.996260966163348
2025-01-08 09:35:28.072345856,0.04505755,0.9855839197631335
2025-01-08 09:35:28.082351872,0.08397999,0.9746422612010865
2025-01-08 09:35:28.092530944,0.16666993,0.963442858536811
2025-01-08 09:35:28.102544128,0.21073815,0.9519927166651245
2025-01-08 09:35:28.112544000,0.16882321,0.9402989729844035
2025-01-08 09:35:28.122622976,0.14835751,0.9283688929944942
2025-01-08 09:35:28.135144960,0.2116212,0.9162098658270627
2025-01-08 09:35:28.142641152,0.27688879,0.9038293997112901
2025-01-08 09:35:28.152381952,0.29330978,0.8912351173778588
2025-01-08 09:35:28.162276096,0.30329779,0.8784347514042051
2025-01-08 09:35:28.172338944,0.33103877,0.8654361395040443
2025-01-08 09:35:28.182339072,0.36332908,0.8522472197642134
2025-01-08 09:35:28.192452864,0.38823482,0.8388760258318865
2025-01-08 09:35:28.203083008,0.26595163,0.8253306820552615
2025-01-08 09:35:28.212317952,-0.069125,0.8116193985808263
2025-01-08 09:35:28.222266880,-0.08675671,0.7977504664103439
2025-01-08 09:35:28.232297984,0.62129879,0.7837322524207
2025-01-08 09:35:28.242377984,1.43749392,0.7695731943497943
2025-01-08 09:35:28.252242176,1.54578376,0.7552817957516507
2025-01-08 09:35:28.262258944,0.97568113,0.740866620923947
2025-01-08 09:35:28.272239872,0.57968295,0.7263362898111684
2025-01-08 09:35:28.282788096,0.53212416,0.7116994728866006
2025-01-08 09:35:28.292399872,0.55822164,0.6969648860163806
2025-01-08 09:35:28.302639872,0.63328147,0.6821412853088314
2025-01-08 09:35:28.312541952,0.81729114,0.6672374619523029
2025-01-08 09:35:28.322405120,0.9734621,0.6522622370447436
2025-01-08 09:35:28.332400128,1.00203717,0.6372244564182269
2025-01-08 09:35:28.342420224,0.99098855,0.6221329854616429
2025-01-08 09:35:28.352510976,0.98651713,0.6069967039447697
2025-01-08 09:35:28.362452992,0.97429729,0.5918245008469194
2025-01-08 09:35:28.372435200,0.94423252,0.5766252691933496
2025-01-08 09:35:28.382547968,0.92457044,0.5614079009026096
2025-01-08 09:35:28.392548096,0.91475666,0.5461812816479868
2025-01-08 09:35:28.402491136,0.89168847,0.5309542857361857
2025-01-08 09:35:28.412719104,0.85465765,0.5157357710063635
2025-01-08 09:35:28.422823936,0.81647527,0.5005345737526226
2025-01-08 09:35:28.432715008,0.80563062,0.48535950367302816
2025-01-08 09:35:28.442636032,0.82230055,0.47021933884820427
2025-01-08 09:35:28.452670208,0.81909376,0.45512282075252547
2025-01-08 09:35:28.462605056,0.79067189,0.44007864930089385
2025-01-08 09:35:28.472528896,0.77638936,0.42509547793406116
2025-01-08 09:35:28.482624000,0.77588862,0.41018190874541627
2025-01-08 09:35:28.492674048,0.76660633,0.39534648765213115
2025-01-08 09:35:28.502692096,0.74813133,0.3805976996135096
2025-01-08 09:35:28.512937984,0.73856878,0.3659439638993564
2025-01-08 09:35:28.522713856,0.72899675,0.35139362941112995
2025-01-08 09:35:28.532769024,0.71292251,0.33695497005860875
2025-01-08 09:35:28.542584832,0.69176561,0.3226361801947546
2025-01-08 09:35:28.552699136,0.68497235,0.3084453701114027
2025-01-08 09:35:28.562696960,0.68100888,0.29439056159837323
2025-01-08 09:35:28.572689152,0.66558707,0.2804796835685341
2025-01-08 09:35:28.582701824,0.63616055,0.26672056775130826
2025-01-08 09:35:28.592722944,0.58542144,0.2531209444570534
2025-01-08 09:35:28.602701056,0.51258457,0.2396884384146982
2025-01-08 09:35:28.613672960,0.41698396,0.22643056468495357
2025-01-08 09:35:28.622787072,0.29086387,0.21335472465136937
2025-01-08 09:35:28.632796928,0.13721561,0.20046820209144278
2025-01-08 09:35:28.642796032,-0.03544235,0.18777815932992617
2025-01-08 09:35:28.652817920,-0.2140156,0.17529163347642032
2025-01-08 09:35:28.662823936,-0.38213766,0.16301553274928224
2025-01-08 09:35:28.672819968,-0.52967793,0.1509566328878023
2025-01-08 09:35:28.682779904,-0.65455461,0.13912157365455263
2025-01-08 09:35:28.692788992,-0.76547945,0.1275168554297364
2025-01-08 09:35:28.702783232,-0.86155832,0.11614883589930024
2025-01-08 09:35:28.712805120,-0.90801889,0.10502372683850959
2025-01-08 09:35:28.722915840,-0.88753247,0.09414759099261462
2025-01-08 09:35:28.732833024,-0.82552058,0.08352633905616301
2025-01-08 09:35:28.742742016,-0.77487028,0.07316572675245317
2025-01-08 09:35:28.752893952,-0.75178468,0.06307135201454013
