TIMESTAMP,ACCX,ACCX_filtered
2025-01-08 10:18:47.182326016,-0.11471063,-0.08892448630672935
2025-01-08 10:18:47.182345984,-0.10993397,-0.0906446176490196
2025-01-08 10:18:47.183736064,-0.12559867,-0.0922924079312008
2025-01-08 10:18:47.260341760,-0.16026366,-0.09386639219000688
2025-01-08 10:18:47.260359168,-0.17962718,-0.09536514061514116
2025-01-08 10:18:47.260369152,-0.16408873,-0.09678725973486632
2025-01-08 10:18:47.260374016,-0.12642682,-0.09813139358411235
2025-01-08 10:18:47.260379904,-0.09201753,-0.09939622485412301
2025-01-08 10:18:47.260385024,-0.08398277,-0.10058047602267446
2025-01-08 10:18:47.260390144,-0.10940218,-0.10168291046390655
2025-01-08 10:18:47.270134016,-0.14141601,-0.1027023335368207
2025-01-08 10:18:47.277078016,-0.1598922,-0.10363759365150774
2025-01-08 10:18:47.300503040,-0.16752774,-0.10448758331218248
2025-01-08 10:18:47.300663040,-0.1712997,-0.1052512401361159
2025-01-08 10:18:47.306518016,-0.17956752,-0.10592754784756718
2025-01-08 10:18:47.314927104,-0.19001412,-0.10651553724583554
2025-01-08 10:18:47.324350208,-0.19973934,-0.10701428714656493
2025-01-08 10:18:47.335208960,-0.21137518,-0.10742292529545308
2025-01-08 10:18:47.343659008,-0.22616053,-0.10774062925353102
2025-01-08 10:18:47.353806080,-0.24039876,-0.1079666272531991
2025-01-08 10:18:47.363773952,-0.23920965,-0.1081001990242225
2025-01-08 10:18:47.373842944,-0.23398811,-0.10814067658890944
2025-01-08 10:18:47.446266880,-0.24097085,-0.10808744502571463
2025-01-08 10:18:47.446288128,-0.25502121,-0.10793994320053045
2025-01-08 10:18:47.446297856,-0.27528101,-0.10769766446495133
2025-01-08 10:18:47.446305024,-0.29425752,-0.10736015732081682
2025-01-08 10:18:47.446311936,-0.30906647,-0.10692702605036215
2025-01-08 10:18:47.446317824,-0.30934882,-0.10639793131132923
2025-01-08 10:18:47.446322944,-0.28091556,-0.10577259069641169
2025-01-08 10:18:47.453986816,-0.23117411,-0.10505077925643613
2025-01-08 10:18:47.463906048,-0.18956381,-0.10423232998670354
2025-01-08 10:18:47.474831104,-0.1821959,-0.1033171342759406
2025-01-08 10:18:47.484424960,-0.20590067,-0.10230514231733852
2025-01-08 10:18:47.494013952,-0.24051666,-0.10119636348118095
2025-01-08 10:18:47.503934976,-0.26998818,-0.09999086664859222
2025-01-08 10:18:47.581649920,-0.28791946,-0.09868878050596153
2025-01-08 10:18:47.581670912,-0.30711055,-0.09729029379963046
2025-01-08 10:18:47.581679104,-0.32739002,-0.09579565555045494
2025-01-08 10:18:47.581687808,-0.3392393,-0.0942051752278865
2025-01-08 10:18:47.581693952,-0.32794464,-0.09251922288324264
2025-01-08 10:18:47.581700096,-0.3009941,-0.0907382292418683
2025-01-08 10:18:47.581705984,-0.26707739,-0.0888626857539193
2025-01-08 10:18:47.584281088,-0.23923784,-0.08689314460352865
2025-01-08 10:18:47.593921024,-0.2246964,-0.08483021867614805
2025-01-08 10:18:47.604072960,-0.23586857,-0.08267458148388626
2025-01-08 10:18:47.614073088,-0.26410776,-0.08042696704869919
2025-01-08 10:18:47.624044032,-0.29192007,-0.07808816974331483
2025-01-08 10:18:47.634139904,-0.30176336,-0.07565904408981114
2025-01-08 10:18:47.644120064,-0.29058117,-0.0731405045157933
2025-01-08 10:18:47.654017024,-0.26858658,-0.07053352506815173
2025-01-08 10:18:47.664093952,-0.25618547,-0.06783913908441064
2025-01-08 10:18:47.674030080,-0.26249415,-0.06505843882171312
2025-01-08 10:18:47.684101120,-0.28402686,-0.06219257504351695
2025-01-08 10:18:47.694102016,-0.31219184,-0.059242756564110106
2025-01-08 10:18:47.704161792,-0.32442975,-0.056210249751086114
2025-01-08 10:18:47.714298880,-0.30668712,-0.0530963779859523
2025-01-08 10:18:47.724103936,-0.25587583,-0.04990252108307449
2025-01-08 10:18:47.738522880,-0.18625456,-0.04663011466719656
2025-01-08 10:18:47.744275200,-0.11498439,-0.043280649509803155
2025-01-08 10:18:47.754240000,-0.06128836,-0.03985567082462654
2025-01-08 10:18:47.764489984,-0.04678035,-0.036356777522630696
2025-01-08 10:18:47.774373888,-0.06337529,-0.032785621426837386
2025-01-08 10:18:47.784264960,-0.0834775,-0.029143906447389935
2025-01-08 10:18:47.794320128,-0.08233589,-0.02543338771728279
2025-01-08 10:18:47.804250880,-0.0654217,-0.02165587068921499
2025-01-08 10:18:47.814227968,-0.02508909,-0.01781321019405749
2025-01-08 10:18:47.824314112,0.03088892,-0.013907309461454053
2025-01-08 10:18:47.834117888,0.08303601,-0.009940119103106227
2025-01-08 10:18:47.844180992,0.10877728,-0.005913636059322762
2025-01-08 10:18:47.854260992,0.11216992,-0.0018299025094436782
2025-01-08 10:18:47.871290880,0.10881019,0.002308995253222246
2025-01-08 10:18:47.874991872,0.11586845,0.0065009279812783495
2025-01-08 10:18:47.884315136,0.16159755,0.010743724667242676
2025-01-08 10:18:47.894181120,0.25707459,0.01503517377094805
2025-01-08 10:18:47.904221952,0.36289227,0.019373024479587525
2025-01-08 10:18:47.914257920,0.42805433,0.023754987999626467
2025-01-08 10:18:47.924304128,0.43649918,0.028178738879775914
2025-01-08 10:18:47.934304000,0.39701837,0.03264191636419506
2025-01-08 10:18:47.944300032,0.31936216,0.037142125775066634
2025-01-08 10:18:47.954343936,0.24363655,0.04167693992366442
2025-01-08 10:18:47.964300032,0.222597,0.04624390054900489
2025-01-08 10:18:47.974377984,0.2551806,0.050840519783155465
2025-01-08 10:18:47.984549120,0.30480963,0.05546428164224638
2025-01-08 10:18:47.994412800,0.31948286,0.06011264354221118
2025-01-08 10:18:48.004288000,0.31486255,0.06478303783825984
2025-01-08 10:18:48.014385920,0.31824201,0.06947287338706756
2025-01-08 10:18:48.024391936,0.33391416,0.07417953713064118
2025-01-08 10:18:48.034422016,0.32646441,0.0789003957008073
2025-01-08 10:18:48.044416000,0.29958981,0.083632797043246
2025-01-08 10:18:48.054409984,0.28431201,0.08837407205997623
2025-01-08 10:18:48.064610048,0.34316719,0.09312153626918396
2025-01-08 10:18:48.075149056,0.55998945,0.09787249148126417
2025-01-08 10:18:48.084697856,0.57073736,0.10262422748993572
2025-01-08 10:18:48.094674176,0.26161259,0.1073740237772709
2025-01-08 10:18:48.106715904,0.09669709,0.11211915123147013
2025-01-08 10:18:48.114785024,0.22869468,0.1168568738761955
2025-01-08 10:18:48.124780032,0.54344672,0.12158445061026985
2025-01-08 10:18:48.134671872,0.39872652,0.12629913695653183
2025-01-08 10:18:48.144424960,0.12954289,0.13099818681863046
2025-01-08 10:18:48.154433024,0.18885148,0.13567885424453155
2025-01-08 10:18:48.164505088,0.07304651,0.14033839519550068
2025-01-08 10:18:48.174427904,-0.05641097,0.14497406931931875
2025-01-08 10:18:48.184492032,0.06846303,0.1495831417264819
2025-01-08 10:18:48.194561024,0.24081153,0.1541628847681274
2025-01-08 10:18:48.204588800,0.3282178,0.1587105798144273
2025-01-08 10:18:48.214554112,0.34710282,0.1632235190321848
2025-01-08 10:18:48.224666112,0.41626471,0.16769900716036557
2025-01-08 10:18:48.234582784,0.51422673,0.17213436328229503
2025-01-08 10:18:48.244617984,0.50719285,0.17652692259325195
2025-01-08 10:18:48.254699008,0.29626012,0.18087403816218775
2025-01-08 10:18:48.264583168,0.05552733,0.18517308268630156
2025-01-08 10:18:48.274599168,-0.06010914,0.1894214502372052
2025-01-08 10:18:48.284811008,-0.01487595,0.19361655799741187
2025-01-08 10:18:48.294545920,0.04604232,0.19775584798589008
2025-01-08 10:18:48.304758016,0.06821793,0.2018367887714242
2025-01-08 10:18:48.314716160,0.05802482,0.2058568771725343
2025-01-08 10:18:48.324615936,0.0373618,0.20981363994271054
2025-01-08 10:18:48.334813952,0.04864252,0.21370463543972723
2025-01-08 10:18:48.344662016,0.04710263,0.21752745527780895
2025-01-08 10:18:48.354852864,-0.02596241,0.22127972596143217
2025-01-08 10:18:48.364759808,-0.01103181,0.22495911049955566
2025-01-08 10:18:48.374729984,0.0526039,0.2285633099990842
2025-01-08 10:18:48.384689920,0.0402016,0.2320900652363824
2025-01-08 10:18:48.394653952,0.09459448,0.23553715820567125
2025-01-08 10:18:48.404877056,0.22335076,0.23890241364314907
2025-01-08 10:18:48.414740992,0.33798856,0.24218370052570073
2025-01-08 10:18:48.424681984,0.51077729,0.2453789335430674
2025-01-08 10:18:48.434787072,0.80872536,0.24848607454237395
2025-01-08 10:18:48.444708096,1.10792518,0.25150313394392165
2025-01-08 10:18:48.454678016,1.46963048,0.2544281721271783
2025-01-08 10:18:48.464790016,1.59067345,0.25725930078591264
2025-01-08 10:18:48.474842112,1.09571862,0.25999468425144673
2025-01-08 10:18:48.484755968,0.12531269,0.2626325407830124
2025-01-08 10:18:48.494781952,-1.14889121,0.2651711438242279
2025-01-08 10:18:48.504934144,-1.49847054,0.2676088232247295
2025-01-08 10:18:48.514735872,-0.92294616,0.26994396642601837
2025-01-08 10:18:48.524785920,0.50433606,0.27217501961060425
2025-01-08 10:18:48.534888960,1.53317428,0.27430048881355756
2025-01-08 10:18:48.544902144,1.3189342,0.27631894099560217
2025-01-08 10:18:48.555336960,0.44432133,0.2782290050769119
2025-01-08 10:18:48.564798208,0.13160485,0.28002937293079777
2025-01-08 10:18:48.574918144,0.45976096,0.28171880033650315
2025-01-08 10:18:48.585019136,0.84984326,0.2832961078903507
2025-01-08 10:18:48.594985984,0.87580597,0.28476018187451707
2025-01-08 10:18:48.605089024,0.58275157,0.28610997508273583
2025-01-08 10:18:48.615003136,0.31006271,0.2873445076022657
2025-01-08 10:18:48.625022976,0.243608,0.28846286755148753
2025-01-08 10:18:48.634862848,0.32821608,0.2894642117725268
2025-01-08 10:18:48.644852992,0.37278372,0.2903477664783288
2025-01-08 10:18:48.654772992,0.30286348,0.2911128278536504
2025-01-08 10:18:48.664730112,0.21670711,0.29175876260945677
2025-01-08 10:18:48.674736128,0.29070354,0.2922850084902564
2025-01-08 10:18:48.684845056,0.43427247,0.29269107473392864
2025-01-08 10:18:48.694983936,0.57291567,0.29297654248364385
2025-01-08 10:18:48.704973056,0.66011733,0.2931410651515026
2025-01-08 10:18:48.715076096,0.66525322,0.29318436873355846
2025-01-08 10:18:48.724997120,0.56449091,0.2931062520759245
2025-01-08 10:18:48.735057152,0.4620946,0.29290658709169737
2025-01-08 10:18:48.745394944,0.45207769,0.29258531892846973
2025-01-08 10:18:48.755394048,0.49785906,0.2921424660862374
2025-01-08 10:18:48.765101056,0.50886238,0.29157812048554366
2025-01-08 10:18:48.774925824,0.49724191,0.2908924474857385
2025-01-08 10:18:48.784955904,0.46386319,0.29008568585327016
2025-01-08 10:18:48.795080960,0.42495269,0.2891581476799581
2025-01-08 10:18:48.805177088,0.40890628,0.2881102182512371
2025-01-08 10:18:48.814985984,0.38771731,0.28694235586439776
2025-01-08 10:18:48.825124096,0.37545484,0.28565509159688457
2025-01-08 10:18:48.835282176,0.41255081,0.28424902902475063
2025-01-08 10:18:48.845200896,0.43665123,0.2827248438914032
2025-01-08 10:18:48.855088896,0.37191141,0.2810832837268139
2025-01-08 10:18:48.865166848,0.30404359,0.2793251674174006
2025-01-08 10:18:48.875156992,0.32349491,0.27745138472682623
2025-01-08 10:18:48.885030144,0.37443972,0.2754628957679965
2025-01-08 10:18:48.895132160,0.37606633,0.27336073042657444
2025-01-08 10:18:48.905309952,0.33858746,0.2711459877363635
2025-01-08 10:18:48.915196928,0.33123487,0.2688198352069507
2025-01-08 10:18:48.925210112,0.34587246,0.26638350810403394
2025-01-08 10:18:48.935124992,0.34853154,0.2638383086828934
2025-01-08 10:18:48.945266944,0.33781838,0.26118560537550195
2025-01-08 10:18:48.955269120,0.30113757,0.25842683193180555
2025-01-08 10:18:48.965286912,0.219078,0.2555634865157363
2025-01-08 10:18:48.975234048,0.12181914,0.25259713075655654
2025-01-08 10:18:48.985312000,0.03431612,0.24952938875616562
2025-01-08 10:18:48.995453952,-0.03873044,0.24636194605303396
2025-01-08 10:18:49.005332992,-0.07715926,0.24309654854345986
2025-01-08 10:18:49.015283968,-0.07539466,0.2397350013608803
2025-01-08 10:18:49.025312000,-0.09551376,0.23627916771399476
2025-01-08 10:18:49.035325952,-0.15840247,0.23273096768449483
2025-01-08 10:18:49.045438976,-0.23294318,0.22909237698522025
2025-01-08 10:18:49.055511040,-0.30487502,0.22536542567959558
2025-01-08 10:18:49.065409792,-0.33743429,0.2215521968632263
2025-01-08 10:18:49.075575040,-0.35100877,0.21765482530856642
2025-01-08 10:18:49.085485056,-0.36235756,0.21367549607359448
2025-01-08 10:18:49.096046848,-0.38809764,0.20961644307546307
2025-01-08 10:18:49.105442048,-0.52738273,0.2054799476301136
2025-01-08 10:18:49.115382016,-0.70190793,0.2012683369588752
2025-01-08 10:18:49.125377024,-0.81382442,0.19698398266308859
2025-01-08 10:18:49.135591936,-0.84275448,0.19262929916782373
2025-01-08 10:18:49.145405952,-0.84506923,0.1882067421357816
2025-01-08 10:18:49.155457024,-0.7816925,0.18371880685249276
2025-01-08 10:18:49.165263872,-0.59512681,0.17916802658394984
2025-01-08 10:18:49.175385856,-0.40185159,0.1745569709078292
2025-01-08 10:18:49.185272064,-0.38397509,0.16988824401947944
2025-01-08 10:18:49.195427840,-0.47329855,0.16516448301387263
2025-01-08 10:18:49.205598976,-0.48470455,0.16038835614473368
2025-01-08 10:18:49.215292928,-0.36363477,0.15556256106208016
2025-01-08 10:18:49.225385984,-0.23343921,0.15068982302942102
2025-01-08 10:18:49.235320064,-0.14600182,0.14577289312187997
2025-01-08 10:18:49.245309952,-0.20611978,0.14081454640652366
2025-01-08 10:18:49.255549952,-0.38981926,0.1358175801061865
2025-01-08 10:18:49.265340160,-0.51590204,0.1307848117481014
2025-01-08 10:18:49.275488000,-0.52522677,0.12571907729865203
2025-01-08 10:18:49.285357056,-0.47925907,0.12062322928557799
2025-01-08 10:18:49.295517952,-0.449512,0.11550013490897199
2025-01-08 10:18:49.305497856,-0.41750807,0.11035267414241683
2025-01-08 10:18:49.315587072,-0.35109293,0.10518373782561823
2025-01-08 10:18:49.325531904,-0.18827665,0.09999622574989785
2025-01-08 10:18:49.335526912,0.05688912,0.09479304473791486
2025-01-08 10:18:49.345655808,0.26797318,0.08957710671898914
2025-01-08 10:18:49.355525120,0.62288702,0.0843513268014058
2025-01-08 10:18:49.365573888,0.86324441,0.07911862134307969
2025-01-08 10:18:49.376194048,0.81266886,0.07388190602196333
2025-01-08 10:18:49.385952000,0.83183122,0.06864409390758072
2025-01-08 10:18:49.395597056,1.14980984,0.06340809353506988
2025-01-08 10:18:49.405635072,1.43893027,0.058176806983115295
2025-01-08 10:18:49.415661056,1.18546033,0.05295312795714895
2025-01-08 10:18:49.425488896,0.52249753,0.04773993987919575
2025-01-08 10:18:49.435659008,-0.11872512,0.04254011398573363
2025-01-08 10:18:49.445638912,-0.54901642,0.03735650743493379
2025-01-08 10:18:49.456069888,-0.66952544,0.03219196142463986
2025-01-08 10:18:49.465606912,-0.55871069,0.027049299322437156
2025-01-08 10:18:49.475476992,-0.30756068,0.02193132480915408
2025-01-08 10:18:49.485596928,-0.14002091,0.016840820037128522
2025-01-08 10:18:49.495655168,-0.06381404,0.01178054380456196
2025-01-08 10:18:49.505853952,-0.01191658,0.0067532297472703545
2025-01-08 10:18:49.515651072,-0.0539968,0.001761584549131323
2025-01-08 10:18:49.525767168,-0.18331951,-0.00319171382749016
2025-01-08 10:18:49.535548928,-0.44376272,-0.00810401789006657
2025-01-08 10:18:49.545691136,-0.54292339,-0.012972712341730358
2025-01-08 10:18:49.555980032,-0.36054707,-0.017795215783356227
2025-01-08 10:18:49.565792000,-0.26539624,-0.02256898239068407
2025-01-08 10:18:49.575755008,-0.32147104,-0.02729150356528016
2025-01-08 10:18:49.585716992,-0.3096118,-0.03196030955815575
2025-01-08 10:18:49.595751936,-0.14356709,-0.036572971064880624
2025-01-08 10:18:49.605652992,-0.02227038,-0.041127100791050815
2025-01-08 10:18:49.615795968,-0.05752355,-0.04562035498699238
2025-01-08 10:18:49.625838080,-0.14928484,-0.05005043495060503
2025-01-08 10:18:49.635781120,-0.20988792,-0.05441508849727328
2025-01-08 10:18:49.645804032,-0.27211779,-0.05871211139579788
2025-01-08 10:18:49.655822080,-0.32577413,-0.06293934876932546
2025-01-08 10:18:49.665785088,-0.53579944,-0.06709469646027848
2025-01-08 10:18:49.675819008,-0.62835914,-0.0711761023583186
2025-01-08 10:18:49.685939968,-0.53292817,-0.07518156769039912
2025-01-08 10:18:49.695837952,-0.47635484,-0.07910914827199439
2025-01-08 10:18:49.705716992,-0.15596908,-0.08295695571862101
2025-01-08 10:18:49.715778048,0.08988059,-0.08672315861679611
2025-01-08 10:18:49.725879808,0.29887348,-0.09040598365360773
2025-01-08 10:18:49.735863808,0.42978948,-0.09400371670410387
2025-01-08 10:18:49.745816832,0.48691922,-0.09751470387573778
2025-01-08 10:18:49.755748864,0.57309449,-0.10093735250913974
2025-01-08 10:18:49.765881088,0.65985173,-0.10427013213451772
2025-01-08 10:18:49.775912960,0.62996835,-0.1075115753830226
2025-01-08 10:18:49.785917952,0.61218745,-0.11066027885244767
2025-01-08 10:18:49.795983104,0.54278237,-0.11371490392666622
2025-01-08 10:18:49.805902848,0.44709599,-0.11667417754824518
2025-01-08 10:18:49.815888896,0.42781037,-0.11953689294370844
2025-01-08 10:18:49.825818112,0.46119159,-0.1223019103009589
2025-01-08 10:18:49.835952128,0.44008899,-0.12496815739840311
2025-01-08 10:18:49.845978112,0.36228275,-0.12753463018536085
2025-01-08 10:18:49.855963904,0.32936949,-0.13000039331337523
2025-01-08 10:18:49.865958912,0.39696282,-0.13236458061807846
2025-01-08 10:18:49.875823104,0.47921348,-0.1346263955513049
2025-01-08 10:18:49.885926912,0.51720846,-0.1367851115631782
2025-01-08 10:18:49.896024064,0.51472658,-0.13884007243394014
2025-01-08 10:18:49.906040832,0.47857022,-0.14079069255532345
2025-01-08 10:18:49.915899904,0.48425132,-0.14263645716131032
2025-01-08 10:18:49.926055936,0.51544452,-0.1443769225081565
2025-01-08 10:18:49.936034816,0.55425602,-0.14601171600359666
2025-01-08 10:18:49.945984000,0.63388991,-0.14754053628518732
2025-01-08 10:18:49.956294912,0.70387477,-0.1489631532477801
2025-01-08 10:18:49.966004992,0.74474776,-0.15027940802015777
2025-01-08 10:18:49.975815936,0.75684625,-0.15148921289089978
2025-01-08 10:18:49.986584832,0.74326241,-0.15259255118358786
2025-01-08 10:18:49.996512768,0.68601084,-0.15358947708149376
2025-01-08 10:18:50.006848000,0.57674056,-0.1544801154019347
2025-01-08 10:18:50.016432896,0.46962088,-0.1552646613205149
2025-01-08 10:18:50.026158080,0.37298322,-0.15594338004551228
2025-01-08 10:18:50.036123904,0.29681689,-0.15651660644270507
2025-01-08 10:18:50.046230016,0.27003968,-0.1569847446109706
2025-01-08 10:18:50.056188160,0.26308471,-0.1573482674090241
2025-01-08 10:18:50.066332928,0.25884283,-0.15760771593370446
2025-01-08 10:18:50.076072960,0.25623178,-0.1577636989502466
2025-01-08 10:18:50.086246912,0.31041116,-0.1578168922750176
2025-01-08 10:18:50.096246016,0.38939989,-0.15776803811123005
2025-01-08 10:18:50.106091008,0.42535305,-0.15761794433817877
2025-01-08 10:18:50.116087040,0.39547348,-0.15736748375458298
2025-01-08 10:18:50.126331136,0.31777298,-0.15701759327665019
2025-01-08 10:18:50.136229120,0.25684381,-0.15656927309150973
2025-01-08 10:18:50.146135040,0.23585629,-0.15602358576670147
2025-01-08 10:18:50.156224000,0.183083,-0.15538165531643056
2025-01-08 10:18:50.166224128,0.12003005,-0.15464466622533884
2025-01-08 10:18:50.176270848,0.06206125,-0.15381386243056877
2025-01-08 10:18:50.186232064,0.00441021,-0.15289054626293003
2025-01-08 10:18:50.196088064,-0.04027343,-0.15187607734800807
2025-01-08 10:18:50.206147840,-0.08628196,-0.1507718714680817
2025-01-08 10:18:50.216284160,-0.12329447,-0.1495793993857501
2025-01-08 10:18:50.226226176,-0.12300295,-0.14830018563019096
2025-01-08 10:18:50.236197888,-0.11860728,-0.14693580724700595
2025-01-08 10:18:50.246292224,-0.11438072,-0.14548789251263014
2025-01-08 10:18:50.256145920,-0.09227967,-0.14395811961431387
2025-01-08 10:18:50.266146048,-0.0877974,-0.1423482152967031
2025-01-08 10:18:50.276144128,-0.11785024,-0.1406599534760769
2025-01-08 10:18:50.286331904,-0.1586045,-0.1388951538233175
2025-01-08 10:18:50.296385024,-0.17137647,-0.13705568031671453
2025-01-08 10:18:50.306349056,-0.22678465,-0.13514343976572524
2025-01-08 10:18:50.316327936,-0.31712359,-0.13316038030683353
2025-01-08 10:18:50.326252032,-0.41088593,-0.1311084898726715
2025-01-08 10:18:50.336237056,-0.50964206,-0.1289897946355862
2025-01-08 10:18:50.346370048,-0.60572457,-0.12680635742684912
2025-01-08 10:18:50.356172032,-0.64855272,-0.12456027613272865
2025-01-08 10:18:50.366373120,-0.62575787,-0.12225368206865775
2025-01-08 10:18:50.376368128,-0.59678912,-0.11988873833274583
2025-01-08 10:18:50.386219008,-0.62004673,-0.11746763813989845
2025-01-08 10:18:50.396417024,-0.66413867,-0.11499260313782032
2025-01-08 10:18:50.406460928,-0.61284119,-0.11246588170619165
2025-01-08 10:18:50.416421888,-0.54777271,-0.10988974724031715
2025-01-08 10:18:50.426280960,-0.55182523,-0.10726649642055819
2025-01-08 10:18:50.436530944,-0.5598461,-0.10459844746886812
2025-01-08 10:18:50.446482944,-0.60587507,-0.10188793839375876
2025-01-08 10:18:50.456401152,-0.71634495,-0.09913732522503287
2025-01-08 10:18:50.466496000,-0.82132816,-0.09634898023962415
2025-01-08 10:18:50.476315136,-0.87868291,-0.09352529017989163
2025-01-08 10:18:50.486480896,-0.92204654,-0.09066865446571905
2025-01-08 10:18:50.496498176,-0.93095714,-0.0877814834017727
2025-01-08 10:18:50.506396928,-0.97748101,-0.08486619638127348
2025-01-08 10:18:50.516544000,-1.02975512,-0.08192522008764039
2025-01-08 10:18:50.526352896,-0.99651891,-0.07896098669536157
2025-01-08 10:18:50.536432896,-0.91558832,-0.07597593207144893
2025-01-08 10:18:50.546503168,-0.90450603,-0.07297249397882899
2025-01-08 10:18:50.556427008,-0.99102432,-0.0699531102830207
2025-01-08 10:18:50.566406912,-1.01732326,-0.0669202171634459
2025-01-08 10:18:50.576451072,-0.93735892,-0.06387624733071275
2025-01-08 10:18:50.586668032,-0.81072176,-0.060823628251206865
2025-01-08 10:18:50.596580864,-0.71955836,-0.05776478038031591
2025-01-08 10:18:50.606683904,-0.68201947,-0.054702115405607744
2025-01-08 10:18:50.616655104,-0.66723543,-0.05163803450126948
2025-01-08 10:18:50.626606848,-0.61904705,-0.04857492659510738
2025-01-08 10:18:50.636648960,-0.54124933,-0.04551516664939405
2025-01-08 10:18:50.646760960,-0.48525476,-0.04246111395683808
2025-01-08 10:18:50.656456960,-0.46079296,-0.03941511045293782
2025-01-08 10:18:50.666599936,-0.44507426,-0.03637947904596559
2025-01-08 10:18:50.676608000,-0.39213872,-0.033356521965815726
2025-01-08 10:18:50.686686976,-0.3110711,-0.0303485191329298
2025-01-08 10:18:50.696664064,-0.25305134,-0.027357726548500143
2025-01-08 10:18:50.706706944,-0.22636336,-0.024386374707129763
2025-01-08 10:18:50.716645120,-0.21545237,-0.02143666703311103
2025-01-08 10:18:50.726792192,-0.21703452,-0.01851077834146491
2025-01-08 10:18:50.736758016,-0.22008735,-0.015610853324861357
2025-01-08 10:18:50.746691840,-0.23296797,-0.012739005067519455
2025-01-08 10:18:50.756713984,-0.22529072,-0.009897313587165
2025-01-08 10:18:50.766708992,-0.20783806,-0.007087824406098972
2025-01-08 10:18:50.776560896,-0.22147644,-0.004312547152405662
2025-01-08 10:18:50.786704896,-0.23930305,-0.0015734541923066192
2025-01-08 10:18:50.796765952,-0.22796857,0.0011275207053617383
2025-01-08 10:18:50.806807040,-0.19586164,0.0037884836715929775
2025-01-08 10:18:50.816602112,-0.15081382,0.006407582005652448
2025-01-08 10:18:50.826643968,-0.12089646,0.008983005408617975
2025-01-08 10:18:50.836556032,-0.10291874,0.011512987181148768
2025-01-08 10:18:50.846656000,-0.09543109,0.013995805384642847
2025-01-08 10:18:50.856792064,-0.0865531,0.01642978396497103
2025-01-08 10:18:50.866808832,-0.08476269,0.018813293838006284
2025-01-08 10:18:50.876802816,-0.08045936,0.02114475393619971
2025-01-08 10:18:50.886672896,-0.10686165,0.023422632215482027
2025-01-08 10:18:50.896830976,-0.16400361,0.025645446621806157
2025-01-08 10:18:50.906872064,-0.22345066,0.02781176601667454
2025-01-08 10:18:50.916825088,-0.21771854,0.029920211061030707
2025-01-08 10:18:50.926791936,-0.14532489,0.031969455056926124
2025-01-08 10:18:50.936697856,-0.0802471,0.03395822474640798
2025-01-08 10:18:50.946712064,-0.06154883,0.03588530106710752
2025-01-08 10:18:50.956866048,-0.08344775,0.03774951986404289
2025-01-08 10:18:50.966830080,-0.11053312,0.039549772557185274
2025-01-08 10:18:50.976839168,-0.1219036,0.041285006764372675
2025-01-08 10:18:50.986860032,-0.1113615,0.0429542268791902
2025-01-08 10:18:50.997009152,-0.07369155,0.04455649460347305
2025-01-08 10:18:51.007070976,-0.01737267,0.04609092943412162
2025-01-08 10:18:51.016879104,0.04880911,0.047556709103957776
2025-01-08 10:18:51.027045120,0.10549074,0.04895306997638445
2025-01-08 10:18:51.036901888,0.15455937,0.050279307393648755
2025-01-08 10:18:51.046988032,0.21249992,0.05153477597854509
2025-01-08 10:18:51.057035008,0.26795834,0.05271888988943157
2025-01-08 10:18:51.067097856,0.30692619,0.053831123028468285
2025-01-08 10:18:51.076942080,0.35975766,0.05487100920302608
2025-01-08 10:18:51.086769152,0.43915939,0.055838142240245636
2025-01-08 10:18:51.096967936,0.51296878,0.05673217605476967
2025-01-08 10:18:51.107070976,0.59793061,0.05755282466970267
2025-01-08 10:18:51.117025024,0.66997707,0.058299862190892136
2025-01-08 10:18:51.126859008,0.72395843,0.05897312273465869
2025-01-08 10:18:51.136858880,0.77821022,0.05957250030914309
2025-01-08 10:18:51.146904064,0.78350687,0.060097948649469074
2025-01-08 10:18:51.157037056,0.75181592,0.06054948100696132
2025-01-08 10:18:51.166907136,0.67698359,0.06092716989268948
2025-01-08 10:18:51.176926976,0.55257016,0.06123114677564858
2025-01-08 10:18:51.186940928,0.47429228,0.06146160173591737
2025-01-08 10:18:51.196813056,0.42672533,0.061618783073173804
2025-01-08 10:18:51.206995968,0.46390241,0.06170299687097894
2025-01-08 10:18:51.216945920,0.48110676,0.06171460651727732
2025-01-08 10:18:51.227059968,0.44051361,0.06165403218159194
2025-01-08 10:18:51.236902912,0.42319512,0.06152175024942872
2025-01-08 10:18:51.246808064,0.42581117,0.06131829271443493
2025-01-08 10:18:51.257070080,0.43659705,0.061044246528891864
2025-01-08 10:18:51.266899200,0.43849844,0.06070025291314897
2025-01-08 10:18:51.277108992,0.42920053,0.060287006624643466
2025-01-08 10:18:51.287239168,0.41122758,0.05980525518717523
2025-01-08 10:18:51.297202944,0.39326513,0.05925579808114016
2025-01-08 10:18:51.307055872,0.37452865,0.058639485895453355
2025-01-08 10:18:51.316989952,0.36512989,0.0579572194419216
2025-01-08 10:18:51.327168000,0.36444616,0.05720994883285534
2025-01-08 10:18:51.337174016,0.37679356,0.056398672522734866
2025-01-08 10:18:51.347256832,0.39947969,0.05552443631477476
2025-01-08 10:18:51.357188864,0.42709368,0.054588332333255496
2025-01-08 10:18:51.367260928,0.44112289,0.05359149796251678
2025-01-08 10:18:51.377250816,0.46126157,0.05253511475353252
2025-01-08 10:18:51.387283200,0.48720974,0.05142040729901022
2025-01-08 10:18:51.397286912,0.49806231,0.050248642077981825
2025-01-08 10:18:51.407131904,0.46978456,0.0490211262708741
2025-01-08 10:18:51.417249024,0.42142218,0.04773920654607014
2025-01-08 10:18:51.427115008,0.35823518,0.046404267818991714
2025-01-08 10:18:51.437273856,0.30123782,0.045017731984754325
2025-01-08 10:18:51.447288064,0.27508253,0.04358105662546448
2025-01-08 10:18:51.457392896,0.28105456,0.042095733693247046
2025-01-08 10:18:51.467291136,0.29358494,0.04056328817010826
2025-01-08 10:18:51.477280000,0.31589013,0.038985276705755516
2025-01-08 10:18:51.487318016,0.35386562,0.0373632862345106
2025-01-08 10:18:51.497338112,0.39736456,0.03569893257246839
2025-01-08 10:18:51.507348992,0.43212008,0.033993858996064996
2025-01-08 10:18:51.517303040,0.44996291,0.032249734803233024
2025-01-08 10:18:51.527148032,0.48065865,0.030468253858332996
2025-01-08 10:18:51.537332992,0.52300906,0.028651133122060492
2025-01-08 10:18:51.547341056,0.54124027,0.026800111167537617
2025-01-08 10:18:51.557388032,0.5379346,0.024916946683807804
2025-01-08 10:18:51.567218944,0.51853067,0.02300341696795815
2025-01-08 10:18:51.577413120,0.53539652,0.02106131640710285
2025-01-08 10:18:51.587367168,0.5487259,0.019092454951464492
2025-01-08 10:18:51.597363968,0.52417684,0.01709865657979673
2025-01-08 10:18:51.607426048,0.46325457,0.015081757758394392
2025-01-08 10:18:51.617224960,0.41622269,0.013043605894939456
2025-01-08 10:18:51.627408128,0.40980631,0.010986057788434618
2025-01-08 10:18:51.637268992,0.43916285,0.008910978076474929
2025-01-08 10:18:51.647408896,0.45619458,0.006820237681108936
2025-01-08 10:18:51.657364992,0.42198515,0.004715712254539131
2025-01-08 10:18:51.667373824,0.32932723,0.0025992806259083926
2025-01-08 10:18:51.677469952,0.23385358,0.0004728232504175813
2025-01-08 10:18:51.687330048,0.17513335,-0.001661779337987168
2025-01-08 10:18:51.697506048,0.16430324,-0.0038026480691222605
2025-01-08 10:18:51.707520000,0.16281921,-0.005947906873041825
2025-01-08 10:18:51.717474816,0.14081573,-0.008095684209259473
2025-01-08 10:18:51.727505920,0.12034476,-0.010244114587503902
2025-01-08 10:18:51.737463040,0.09326357,-0.012391340078805248
2025-01-08 10:18:51.747531008,0.04666311,-0.014535511815718358
2025-01-08 10:18:51.757554176,-0.00492758,-0.016674791480502268
2025-01-08 10:18:51.767934208,-0.01902139,-0.01880735278008388
2025-01-08 10:18:51.777473024,-0.00848502,-0.02093138290665076
2025-01-08 10:18:51.787537152,-0.0151068,-0.023045083982728268
2025-01-08 10:18:51.797575936,-0.05000943,-0.025146674489614156
2025-01-08 10:18:51.807650048,-0.10849941,-0.027234390678055744
2025-01-08 10:18:51.817447936,-0.16099757,-0.029306487960076205
2025-01-08 10:18:51.827572992,-0.20453554,-0.03136124228086869
2025-01-08 10:18:51.837510144,-0.23018372,-0.03339695146969904
2025-01-08 10:18:51.847572992,-0.26864851,-0.03541193656877551
2025-01-08 10:18:51.857587968,-0.32503152,-0.037404543139063474
2025-01-08 10:18:51.867640064,-0.35936099,-0.03937314254204426
2025-01-08 10:18:51.877425920,-0.32536739,-0.041316133196438835
2025-01-08 10:18:51.887684096,-0.25332576,-0.04323194180893878
2025-01-08 10:18:51.897581056,-0.20264369,-0.045119024578010855
2025-01-08 10:18:51.907691008,-0.18332511,-0.04697586836986304
2025-01-08 10:18:51.917652992,-0.2242884,-0.048800991865687884
2025-01-08 10:18:51.927659008,-0.30283231,-0.05059294667931913
2025-01-08 10:18:51.937572864,-0.37048262,-0.05235031844446926
2025-01-08 10:18:51.947494144,-0.41347694,-0.054071727870735845
2025-01-08 10:18:51.958168064,-0.43697584,-0.055755831767595944
2025-01-08 10:18:51.968197120,-0.4820599,-0.05740132403563347
2025-01-08 10:18:51.977693184,-0.56895381,-0.059006936624273344
2025-01-08 10:18:51.987889920,-0.64102328,-0.060571440455322964
2025-01-08 10:18:51.997842944,-0.69987333,-0.06209364631165422
2025-01-08 10:18:52.007906816,-0.67174172,-0.0635724056903853
2025-01-08 10:18:52.017801984,-0.60409749,-0.06500661161995412
2025-01-08 10:18:52.027651072,-0.65764737,-0.06639519944050454
2025-01-08 10:18:52.037638912,-0.79188448,-0.06773714754703833
2025-01-08 10:18:52.047607808,-0.90081584,-0.06903147809481637
2025-01-08 10:18:52.057938176,-0.90570813,-0.07027725766652566
2025-01-08 10:18:52.067719936,-0.86906904,-0.07147359790075872
2025-01-08 10:18:52.077810176,-0.91798776,-0.0726196560813874
2025-01-08 10:18:52.087773952,-1.00209522,-0.07371463568744215
2025-01-08 10:18:52.097775104,-1.03971624,-0.07475778690314501
2025-01-08 10:18:52.107841024,-1.04639685,-0.0757484070877729
2025-01-08 10:18:52.117779968,-1.08075273,-0.07668584120506651
2025-01-08 10:18:52.127813120,-1.1776973,-0.07756948221192904
2025-01-08 10:18:52.137818112,-1.18190384,-0.07839877140619568
2025-01-08 10:18:52.147820032,-0.98417151,-0.07917319873328775
2025-01-08 10:18:52.157760000,-0.88563818,-0.07989230305159895
2025-01-08 10:18:52.167844096,-0.89672029,-0.080555672356496
2025-01-08 10:18:52.177889024,-0.84883565,-0.08116294396284902
2025-01-08 10:18:52.187726080,-0.77416474,-0.08171380464604315
2025-01-08 10:18:52.197725184,-0.65873319,-0.08220799074145362
2025-01-08 10:18:52.207789824,-0.50020987,-0.08264528820240381
2025-01-08 10:18:52.217880064,-0.39960623,-0.08302553261665872
2025-01-08 10:18:52.227950080,-0.34408188,-0.08334860918153876
2025-01-08 10:18:52.237910016,-0.33392048,-0.08361445263777428
2025-01-08 10:18:52.247926016,-0.31735969,-0.083823047162255
2025-01-08 10:18:52.257772032,-0.29185927,-0.08397442621985943
2025-01-08 10:18:52.267777024,-0.26258504,-0.08406867237458591
2025-01-08 10:18:52.277928192,-0.25976586,-0.08410591706023832
2025-01-08 10:18:52.287864064,-0.31141531,-0.08408634031094986
2025-01-08 10:18:52.297972992,-0.34238803,-0.08401017045186691
2025-01-08 10:18:52.308060928,-0.30090666,-0.0838776837503395
2025-01-08 10:18:52.317963008,-0.24231809,-0.08368920402800317
2025-01-08 10:18:52.327954944,-0.19757688,-0.0834451022341639
2025-01-08 10:18:52.338011136,-0.14287394,-0.08314579598093191
2025-01-08 10:18:52.348030208,-0.10230559,-0.08279174904057877
2025-01-08 10:18:52.358056192,-0.09030849,-0.08238347080562242
2025-01-08 10:18:52.367873792,-0.07550311,-0.08192151571217726
2025-01-08 10:18:52.378028032,-0.07396841,-0.0814064826271311
2025-01-08 10:18:52.388122112,-0.11927259,-0.08083901419974296
2025-01-08 10:18:52.398056960,-0.14822417,-0.08021979617828295
2025-01-08 10:18:52.407943936,-0.15244985,-0.07954955669236276
2025-01-08 10:18:52.418071040,-0.1744014,-0.07882906550163249
2025-01-08 10:18:52.428090112,-0.16417587,-0.07805913321154538
2025-01-08 10:18:52.438108928,-0.11989701,-0.07724061045691982
2025-01-08 10:18:52.448029952,-0.10458302,-0.07637438705405056
2025-01-08 10:18:52.458550016,-0.14224297,-0.07546139112214743
2025-01-08 10:18:52.468643072,-0.19782108,-0.07450258817490285
2025-01-08 10:18:52.478169088,-0.23021388,-0.07349898018301332
2025-01-08 10:18:52.488141056,-0.20996571,-0.07245160460850096
2025-01-08 10:18:52.498085120,-0.17049474,-0.07136153341170565
2025-01-08 10:18:52.507993088,-0.1366778,-0.07022987203183531
2025-01-08 10:18:52.518094080,-0.10447073,-0.06905775834198628
2025-01-08 10:18:52.528305152,-0.1046316,-0.06784636157956188
2025-01-08 10:18:52.538198016,-0.16837585,-0.06659688125303757
2025-01-08 10:18:52.548069888,-0.18683547,-0.06531054602603822
2025-01-08 10:18:52.558160896,-0.15151983,-0.06398861257971013
2025-01-08 10:18:52.568000000,-0.11040878,-0.06263236445438723
2025-01-08 10:18:52.578057984,-0.07158172,-0.061243110871564005
2025-01-08 10:18:52.588044032,-0.07215619,-0.05982218553720567
2025-01-08 10:18:52.598115840,-0.07648194,-0.05837094542743548
2025-01-08 10:18:52.608335872,-0.05295908,-0.05689076955765581
2025-01-08 10:18:52.618219008,-0.0340668,-0.05538305773616758
2025-01-08 10:18:52.628120064,0.00741512,-0.05384922930336678
2025-01-08 10:18:52.638231040,0.06701517,-0.05229072185760445
2025-01-08 10:18:52.648238848,0.1278761,-0.05070898996880694
2025-01-08 10:18:52.658145024,0.19524032,-0.04910550388096034
2025-01-08 10:18:52.668265216,0.2542221,-0.04748174820457073
2025-01-08 10:18:52.678287872,0.31377709,-0.04583922060021881
2025-01-08 10:18:52.688185856,0.35675853,-0.04417943045433109
2025-01-08 10:18:52.698301952,0.40841681,-0.0425038975482957
2025-01-08 10:18:52.708278016,0.44420993,-0.0408141507220539
2025-01-08 10:18:52.718265088,0.48276305,-0.03911172653330039
2025-01-08 10:18:52.728199936,0.53306586,-0.03739816791342802
2025-01-08 10:18:52.738342144,0.56402493,-0.03567502282135206
2025-01-08 10:18:52.748305920,0.58096546,-0.03394384289634966
2025-01-08 10:18:52.758176000,0.58862966,-0.032206182111048684
2025-01-08 10:18:52.768326144,0.59389454,-0.030463595425697317
2025-01-08 10:18:52.778213120,0.60625702,-0.028717637444843753
2025-01-08 10:18:52.788339968,0.60384029,-0.0269698610775503
2025-01-08 10:18:52.798733824,0.58961177,-0.02522181620226148
2025-01-08 10:18:52.808465920,0.59489161,-0.023475048337440168
2025-01-08 10:18:52.818392064,0.60966724,-0.02173109731907852
2025-01-08 10:18:52.828523008,0.60916978,-0.019991495986182505
2025-01-08 10:18:52.838398976,0.56002831,-0.018257768875321052
2025-01-08 10:18:52.848247040,0.47756493,-0.01653143092532067
2025-01-08 10:18:52.858372864,0.41676641,-0.014813986193175565
2025-01-08 10:18:52.868265984,0.41816491,-0.013106926582232873
2025-01-08 10:18:52.878426112,0.38608336,-0.011411730583700605
2025-01-08 10:18:52.888382976,0.3193289,-0.009729862032510937
2025-01-08 10:18:52.898743040,0.26186317,-0.008062768878560432
2025-01-08 10:18:52.908602880,0.22289026,-0.006411881974331776
2025-01-08 10:18:52.918469888,0.20036745,-0.004778613879887489
2025-01-08 10:18:52.928423936,0.17845851,-0.003164357686209254
2025-01-08 10:18:52.938579968,0.17543435,-0.0015704858578390025
2025-01-08 10:18:52.948592896,0.20574325,1.6509042386014024e-06
2025-01-08 10:18:52.958746880,0.23573357,0.0015507247785532645
2025-01-08 10:18:52.968619008,0.26277697,0.003075431917043722
2025-01-08 10:18:52.978614016,0.30915922,0.00457449351601097
2025-01-08 10:18:52.988656128,0.34491229,0.006046656863267723
2025-01-08 10:18:52.998568960,0.37556028,0.007490696360648433
2025-01-08 10:18:53.008521984,0.33167154,0.008905414521060917
2025-01-08 10:18:53.018397184,0.17935044,0.010289642939288135
2025-01-08 10:18:53.031832832,-0.01196861,0.01164224323576867
2025-01-08 10:18:53.039048960,-0.14769053,0.012962107972610501
2025-01-08 10:18:53.048612096,-0.19962186,0.014248161541115962
2025-01-08 10:18:53.064979968,-0.17810494,0.0154993610201221
2025-01-08 10:18:53.068432128,-0.12998784,0.016714697004485562
2025-01-08 10:18:53.078579968,-0.08021063,0.01789319440306714
2025-01-08 10:18:53.088582912,-0.00281978,0.01903391320559968
2025-01-08 10:18:53.098573056,0.11161804,0.02013594921784711
2025-01-08 10:18:53.108773120,0.2264719,0.021198434764492808
2025-01-08 10:18:53.118628864,0.33178312,0.022220539359223142
2025-01-08 10:18:53.128662016,0.42112648,0.02320147034149833
2025-01-08 10:18:53.139272960,0.48661667,0.024140473479535268
2025-01-08 10:18:53.148786176,0.537893,0.025036833539052287
2025-01-08 10:18:53.158694912,0.55010825,0.025889874817359316
2025-01-08 10:18:53.168574208,0.55032247,0.026698961642403186
2025-01-08 10:18:53.178713088,0.57798421,0.027463498836410354
2025-01-08 10:18:53.188633088,0.63805938,0.028182932143799282
2025-01-08 10:18:53.198748160,0.68715179,0.02885674862306418
2025-01-08 10:18:53.208657920,0.67536563,0.029484477002364656
2025-01-08 10:18:53.218693888,0.64035976,0.03006568799858469
2025-01-08 10:18:53.228715776,0.64439464,0.030599994599657548
2025-01-08 10:18:53.238779136,0.67150992,0.031087052309982748
2025-01-08 10:18:53.248670976,0.6958884,0.0315265593587943
2025-01-08 10:18:53.258710016,0.7048406,0.03191825687136957
2025-01-08 10:18:53.268763904,0.68142056,0.03226192900300015
2025-01-08 10:18:53.278760960,0.63240713,0.03255740303567803
2025-01-08 10:18:53.288765952,0.58132178,0.03280454943748132
2025-01-08 10:18:53.298754048,0.54410052,0.033003281884675884
2025-01-08 10:18:53.308728064,0.50368202,0.033153557246579396
2025-01-08 10:18:53.318830848,0.46447545,0.0332553755332684
2025-01-08 10:18:53.328798976,0.42229372,0.03330877980623653
2025-01-08 10:18:53.338803968,0.37178224,0.03331385605214682
2025-01-08 10:18:53.348844032,0.32234234,0.03327073301984894
2025-01-08 10:18:53.358916096,0.27019066,0.03317958202086571
2025-01-08 10:18:53.368794880,0.25838077,0.03304061669358068
2025-01-08 10:18:53.378923008,0.23636007,0.03285409273139304
2025-01-08 10:18:53.388876800,0.19130635,0.03262030757513089
2025-01-08 10:18:53.398891008,0.15055901,0.03233960007004949
2025-01-08 10:18:53.408961024,0.12582171,0.03201235008776532
2025-01-08 10:18:53.418925056,0.11610496,0.031638978113509686
2025-01-08 10:18:53.428837120,0.11303031,0.031219944799112186
2025-01-08 10:18:53.438864896,0.10541278,0.030755750482153864
2025-01-08 10:18:53.448925952,0.08895081,0.03024693467175692
2025-01-08 10:18:53.458882048,0.06602091,0.029694075501506493
2025-01-08 10:18:53.468890880,0.0393219,0.029097789150026476
2025-01-08 10:18:53.478984960,0.01715076,0.02845872922975674
2025-01-08 10:18:53.488915968,-0.02071565,0.027777586144508874
2025-01-08 10:18:53.498934016,-0.11010337,0.02705508641639789
2025-01-08 10:18:53.509012992,-0.24019873,0.026291991982777728
2025-01-08 10:18:53.518976000,-0.34865004,0.025489099463828834
2025-01-08 10:18:53.528953088,-0.40188593,0.024647239401471642
2025-01-08 10:18:53.538998016,-0.39506567,0.02376727547030457
2025-01-08 10:18:53.549016832,-0.37542319,0.022850103661283386
2025-01-08 10:18:53.559417088,-0.34594733,0.02189665143888693
2025-01-08 10:18:53.568839936,-0.31099075,0.020907876872529808
2025-01-08 10:18:53.579041024,-0.29589748,0.019884767743007563
2025-01-08 10:18:53.588960768,-0.30965757,0.01882834062477696
2025-01-08 10:18:53.599003904,-0.31106997,0.017739639944896423
2025-01-08 10:18:53.609072896,-0.32722682,0.01661973701946634
2025-01-08 10:18:53.619750144,-0.37554288,0.015469729068430887
2025-01-08 10:18:53.629060864,-0.40078813,0.014290738209616752
2025-01-08 10:18:53.639046912,-0.40448022,0.013083910432903769
2025-01-08 10:18:53.649086976,-0.43096745,0.011850414555433916
2025-01-08 10:18:53.659117824,-0.49020118,0.010591441158784798
2025-01-08 10:18:53.669268992,-0.53489417,0.009308201509043804
2025-01-08 10:18:53.679094016,-0.6045115,0.008001926460733852
2025-01-08 10:18:53.689106944,-0.69880545,0.006673865345554632
2025-01-08 10:18:53.699096832,-0.75543916,0.005325284846913596
2025-01-08 10:18:53.709167872,-0.75601411,0.0039574678612324605
2025-01-08 10:18:53.719141120,-0.70664203,0.0025717123470240123
2025-01-08 10:18:53.729193984,-0.7085464,0.0011693301627447754
2025-01-08 10:18:53.739177984,-0.79716629,-0.0002483541055653716
2025-01-08 10:18:53.749159936,-0.85798877,-0.0016800043258358062
2025-01-08 10:18:53.759031040,-0.85112756,-0.0031242740096842766
2025-01-08 10:18:53.768980992,-0.85221046,-0.004579807509270601
2025-01-08 10:18:53.779112192,-0.88528252,-0.006045241220248722
2025-01-08 10:18:53.788933888,-0.99146521,-0.007519204789776277
2025-01-08 10:18:53.799019008,-1.09398127,-0.009000322328539749
2025-01-08 10:18:53.810811136,-1.11146843,-0.010487213625749326
2025-01-08 10:18:53.819127040,-1.10117781,-0.011978495366057162
2025-01-08 10:18:53.829189888,-1.05492151,-0.013472782347352958
2025-01-08 10:18:53.839206912,-0.97342336,-0.014968688698391297
2025-01-08 10:18:53.849282048,-0.91122609,-0.016464829095205843
2025-01-08 10:18:53.860864000,-0.84706706,-0.017959819975268996
2025-01-08 10:18:53.869658880,-0.77978337,-0.019452280748358426
2025-01-08 10:18:53.879385856,-0.68745714,-0.020940835003095896
2025-01-08 10:18:53.889281024,-0.59510964,-0.022424111708129867
2025-01-08 10:18:53.899454976,-0.57876432,-0.023900746406936853
2025-01-08 10:18:53.909437952,-0.59655875,-0.02536938240522644
2025-01-08 10:18:53.919440896,-0.56355953,-0.02682867194994062
2025-01-08 10:18:53.929709824,-0.49585187,-0.02827727739884597
2025-01-08 10:18:53.939373056,-0.45136553,-0.029713872379728515
2025-01-08 10:18:53.949400064,-0.41421127,-0.0311371429382097
2025-01-08 10:18:53.959373824,-0.33591336,-0.03254578867321296
2025-01-08 10:18:53.969382144,-0.27389437,-0.03393852385912307
2025-01-08 10:18:53.979268096,-0.22533423,-0.03531407855369237
2025-01-08 10:18:53.989149184,-0.13889825,-0.03667119969076039
2025-01-08 10:18:53.999289088,-0.05261433,-0.03800865215686972
2025-01-08 10:18:54.009262080,-0.01640135,-0.03932521985087435
2025-01-08 10:18:54.019309056,-0.07927901,-0.040619706725651517
2025-01-08 10:18:54.029341952,-0.15253198,-0.041890937811047184
2025-01-08 10:18:54.039435008,-0.16500801,-0.043137760217199055
2025-01-08 10:18:54.049501952,-0.15530694,-0.0443590441174022
2025-01-08 10:18:54.059365888,-0.14301604,-0.04555368370969706
2025-01-08 10:18:54.069396992,-0.15884924,-0.046720598156383276
2025-01-08 10:18:54.079377920,-0.19851995,-0.047858732500677605
2025-01-08 10:18:54.089415168,-0.19116896,-0.04896705855975882
2025-01-08 10:18:54.099361792,-0.15118796,-0.05004457579346173
2025-01-08 10:18:54.109479936,-0.11727077,-0.05109031214790319
2025-01-08 10:18:54.119467008,-0.09698224,-0.052103324873347824
2025-01-08 10:18:54.129491200,-0.0730297,-0.05308270131564104
2025-01-08 10:18:54.139583232,-0.04908854,-0.05402755968056322
2025-01-08 10:18:54.149591040,-0.06000429,-0.054937049770479626
2025-01-08 10:18:54.159471872,-0.0801686,-0.055810353692688074
2025-01-08 10:18:54.169467904,-0.08235765,-0.056646686538889664
2025-01-08 10:18:54.179485184,-0.07460505,-0.05744529703523257
2025-01-08 10:18:54.189510144,-0.09057212,-0.05820546816240628
2025-01-08 10:18:54.199472896,-0.11494297,-0.05892651774528896
2025-01-08 10:18:54.209574912,-0.1302529,-0.059607799011677245
2025-01-08 10:18:54.219579904,-0.12436897,-0.060248701119654524
2025-01-08 10:18:54.229576192,-0.10875976,-0.06084864965318166
2025-01-08 10:18:54.239779840,-0.10453171,-0.061407107085521155
2025-01-08 10:18:54.249654016,-0.09234655,-0.061923573210134
2025-01-08 10:18:54.259501056,-0.0671522,-0.06239758553871669
2025-01-08 10:18:54.272391168,-0.02684104,-0.06282871966607333
2025-01-08 10:18:54.279987200,-0.02114725,-0.0632165896015492
2025-01-08 10:18:54.289577984,-0.03624314,-0.06356084806677632
2025-01-08 10:18:54.299459072,-0.00756496,-0.0638611867595163
2025-01-08 10:18:54.309616128,0.02634233,-0.06411733658340948
2025-01-08 10:18:54.319591936,0.03880298,-0.06432906784347393
2025-01-08 10:18:54.329565952,0.04856616,-0.06449619040722163
2025-01-08 10:18:54.339636992,0.08521509,-0.06461855383129517
2025-01-08 10:18:54.349694976,0.13350803,-0.06469604745355087
2025-01-08 10:18:54.359621120,0.19618994,-0.06472860045055079
2025-01-08 10:18:54.369640960,0.28214866,-0.06471618186044954
2025-01-08 10:18:54.379635200,0.36863887,-0.06465880057129639
2025-01-08 10:18:54.389807104,0.42700481,-0.06455650527479845
2025-01-08 10:18:54.399712000,0.45794177,-0.0644093843856245
2025-01-08 10:18:54.409810944,0.4713555,-0.06421756592635391
2025-01-08 10:18:54.419673856,0.47383726,-0.06398121737820818
2025-01-08 10:18:54.429676032,0.45485932,-0.06370054549772945
2025-01-08 10:18:54.439724800,0.44277042,-0.06337579609960033
2025-01-08 10:18:54.449893888,0.4582569,-0.06300725380582725
2025-01-08 10:18:54.459767040,0.48335356,-0.06259524176153908
2025-01-08 10:18:54.469747968,0.48920161,-0.062140121317680846
2025-01-08 10:18:54.479783936,0.47994107,-0.06164229168090879
2025-01-08 10:18:54.489764864,0.44041407,-0.06110218953102416
2025-01-08 10:18:54.499723008,0.39593732,-0.06052028860630633
2025-01-08 10:18:54.509865984,0.38379216,-0.05989709925713637
2025-01-08 10:18:54.519748096,0.39997989,-0.059233167968327595
2025-01-08 10:18:54.529793024,0.41809678,-0.05852907685060469
2025-01-08 10:18:54.539792896,0.42293894,-0.05778544310170253
2025-01-08 10:18:54.549874944,0.42136377,-0.057002918437576086
2025-01-08 10:18:54.559825920,0.41664612,-0.05618218849424331
2025-01-08 10:18:54.569859072,0.41763806,-0.05532397220080414
2025-01-08 10:18:54.579991040,0.43021262,-0.05442902112420282
2025-01-08 10:18:54.589911040,0.4124459,-0.05349811878632693
2025-01-08 10:18:54.599833856,0.35611224,-0.05253207995405628
2025-01-08 10:18:54.609886976,0.28900504,-0.051531749902900756
2025-01-08 10:18:54.619877120,0.25067794,-0.05049800365488418
2025-01-08 10:18:54.629914112,0.24577355,-0.04943174519135779
2025-01-08 10:18:54.639906816,0.24852592,-0.04833390664144147
2025-01-08 10:18:54.650099968,0.25283182,-0.04720544744681783
2025-01-08 10:18:54.659949056,0.27045512,-0.04604735350361708
2025-01-08 10:18:54.669948928,0.28359896,-0.0448606362821556
2025-01-08 10:18:54.679855104,0.29734391,-0.04364633192530474
2025-01-08 10:18:54.689922048,0.29334027,-0.04240550032628638
2025-01-08 10:18:54.699907072,0.24233997,-0.041139224186707735
2025-01-08 10:18:54.709991936,0.1650151,-0.039848608055664585
2025-01-08 10:18:54.719929856,0.09067929,-0.038534777350757006
2025-01-08 10:18:54.729958912,0.02598149,-0.03719887736187655
2025-01-08 10:18:54.739994112,-0.04603058,-0.03584207223863748
2025-01-08 10:18:54.750114816,-0.11363143,-0.034465543962339196
2025-01-08 10:18:54.760064000,-0.14974308,-0.03307049130335712
2025-01-08 10:18:54.769979904,-0.15484059,-0.03165812876487308
2025-01-08 10:18:54.779977984,-0.14127576,-0.030229685513865467
2025-01-08 10:18:54.790009088,-0.10724348,-0.0287864043002912
2025-01-08 10:18:54.800040960,-0.05509633,-0.027329540365399113
2025-01-08 10:18:54.810075904,-0.00249171,-0.025860360340123605
2025-01-08 10:18:54.820013056,0.05651742,-0.02438014113451495
2025-01-08 10:18:54.830051840,0.1459313,-0.022890168819170505
2025-01-08 10:18:54.840090880,0.25949353,-0.021391737499634255
2025-01-08 10:18:54.850204928,0.36455989,-0.019886148184740632
2025-01-08 10:18:54.860382208,0.44669449,-0.018374707649880112
2025-01-08 10:18:54.870147840,0.49950618,-0.016858727296170342
2025-01-08 10:18:54.880100864,0.53597295,-0.015339522006515173
2025-01-08 10:18:54.891032064,0.55629086,-0.013818408999541062
2025-01-08 10:18:54.900161024,0.55390233,-0.012296706682396057
2025-01-08 10:18:54.910131968,0.52620465,-0.010775733503400244
2025-01-08 10:18:54.920495872,0.50260991,-0.009256806805534293
2025-01-08 10:18:54.929954048,0.51683694,-0.007741241681751999
2025-01-08 10:18:54.939975936,0.53399581,-0.0062303498330982515
2025-01-08 10:18:54.950028800,0.53976119,-0.0047254384306141175
2025-01-08 10:18:54.960169984,0.53160173,-0.0032278089820035696
2025-01-08 10:18:54.970125056,0.50673628,-0.0017387562040326353
2025-01-08 10:18:54.980120832,0.4840892,-0.00025956690162611093
2025-01-08 10:18:54.990146048,0.45788288,0.001208481145379599
2025-01-08 10:18:55.000217088,0.42342073,0.0026641202868761754
2025-01-08 10:18:55.010328064,0.3907308,0.0041060940975733646
2025-01-08 10:18:55.020335872,0.36116785,0.005533158461605229
2025-01-08 10:18:55.030194944,0.36927259,0.006944082645727179
2025-01-08 10:18:55.040233984,0.3414458,0.008337650360191656
2025-01-08 10:18:55.050277888,0.31055909,0.009712660806399502
2025-01-08 10:18:55.060861184,0.28821385,0.011067929710436401
2025-01-08 10:18:55.071047168,0.29456711,0.012402290341617397
2025-01-08 10:18:55.080359936,0.35295868,0.013714594515174703
2025-01-08 10:18:55.090158080,0.41622341,0.015003713578240338
2025-01-08 10:18:55.100274944,0.47825706,0.016268539378287906
2025-01-08 10:18:55.110230016,0.53197175,0.01750798521321471
2025-01-08 10:18:55.120440832,0.52121574,0.01872098676226201
2025-01-08 10:18:55.130286848,0.43815702,0.01990650299698709
2025-01-08 10:18:55.140242176,0.34425753,0.021063517071520193
2025-01-08 10:18:55.150306816,0.27119058,0.02219103719135577
2025-01-08 10:18:55.160322816,0.21334499,0.023288097459948295
2025-01-08 10:18:55.170508032,0.12227058,0.02435375870240118
2025-01-08 10:18:55.180311808,-0.00579029,0.02538710926555824
2025-01-08 10:18:55.190308096,-0.10283494,0.026387265793827348
2025-01-08 10:18:55.200384000,-0.11108404,0.027353373980087928
2025-01-08 10:18:55.210295040,-0.06748319,0.028284609291054388
2025-01-08 10:18:55.220429824,-0.03714377,0.02918017766649266
2025-01-08 10:18:55.230382080,-0.04956686,0.030039316191706127
2025-01-08 10:18:55.240421120,-0.07182813,0.03086129374273334
2025-01-08 10:18:55.250387968,-0.09410155,0.03164541160372394
2025-01-08 10:18:55.260350976,-0.07486099,0.03239100405598021
2025-01-08 10:18:55.270412032,-0.01135236,0.03309743893818039
2025-01-08 10:18:55.280486144,0.03108287,0.03376411817732197
2025-01-08 10:18:55.290301952,0.01032662,0.03439047828995079
2025-01-08 10:18:55.300431104,-0.0209679,0.03497599085326393
2025-01-08 10:18:55.310445056,-0.0264439,0.03552016294570659
2025-01-08 10:18:55.320422912,-0.04678601,0.036022537556702566
2025-01-08 10:18:55.330398208,-0.09970105,0.036482693965190126
2025-01-08 10:18:55.340427008,-0.14064634,0.036900248086658184
2025-01-08 10:18:55.350496000,-0.17228156,0.03727485278840864
2025-01-08 10:18:55.360348928,-0.24275637,0.037606198172793655
2025-01-08 10:18:55.370500096,-0.30829567,0.03789401182820895
2025-01-08 10:18:55.380556032,-0.33218497,0.03813805904764743
2025-01-08 10:18:55.390469120,-0.3133167,0.0383381430146495
2025-01-08 10:18:55.400471040,-0.27953732,0.03849410495651166
2025-01-08 10:18:55.410546176,-0.26852441,0.03860582426464361
2025-01-08 10:18:55.420519168,-0.25510442,0.03867321858199355
2025-01-08 10:18:55.430542080,-0.27918345,0.03869624385748795
2025-01-08 10:18:55.440546048,-0.33614904,0.038674894367461535
2025-01-08 10:18:55.450563072,-0.4115876,0.03860920270408132
2025-01-08 10:18:55.460570112,-0.46836483,0.038499239730795436
2025-01-08 10:18:55.470532864,-0.51396114,0.03834511450486807
2025-01-08 10:18:55.480530944,-0.59207731,0.03814697416708775
2025-01-08 10:18:55.490586112,-0.66789579,0.0379050037987662
2025-01-08 10:18:55.500617984,-0.71330959,0.03761942624617033
2025-01-08 10:18:55.512948992,-0.72631192,0.03729050191256082
2025-01-08 10:18:55.520598784,-0.7268393,0.03691852851803578
2025-01-08 10:18:55.532141056,-0.71786076,0.0365038408274069
2025-01-08 10:18:55.540612864,-0.74202394,0.03604681034636209
2025-01-08 10:18:55.550668032,-0.81233072,0.03554784498619511
2025-01-08 10:18:55.560640000,-0.89823604,0.035007388697411226
2025-01-08 10:18:55.570846208,-0.96160555,0.0344259210725421
2025-01-08 10:18:55.580674048,-0.98911059,0.03380395691853018
2025-01-08 10:18:55.590580992,-0.97431397,0.0331420457990694
2025-01-08 10:18:55.600624128,-0.92713559,0.032440771547313604
2025-01-08 10:18:55.610703104,-0.87610096,0.0317007517493886
2025-01-08 10:18:55.620652032,-0.90710449,0.030922637199170606
2025-01-08 10:18:55.630696960,-0.94546294,0.030107111324815045
2025-01-08 10:18:55.640705024,-0.92014277,0.02925488958754642
2025-01-08 10:18:55.650764032,-0.86063689,0.02836671885324225
2025-01-08 10:18:55.660721920,-0.778189,0.027443376737365313
2025-01-08 10:18:55.670680064,-0.69660777,0.02648567092382458
2025-01-08 10:18:55.680702976,-0.64711303,0.025494438458362998
2025-01-08 10:18:55.690896128,-0.60955244,0.024470545017095422
2025-01-08 10:18:55.700700928,-0.56345063,0.02341488415083802
2025-01-08 10:18:55.710788096,-0.5275867,0.022328376505891756
2025-01-08 10:18:55.720760064,-0.43416208,0.021211969021963612
2025-01-08 10:18:55.730753024,-0.32339579,0.02006663410792586
2025-01-08 10:18:55.740755200,-0.29568034,0.018893368796133618
2025-01-08 10:18:55.750839040,-0.29641354,0.01769319387603953
2025-01-08 10:18:55.760787968,-0.25751591,0.016467153007859597
2025-01-08 10:18:55.770754048,-0.18017554,0.015216311817062489
2025-01-08 10:18:55.780761088,-0.14279193,0.01394175697047025
2025-01-08 10:18:55.790874112,-0.1380623,0.012644595234772576
2025-01-08 10:18:55.800892160,-0.12767637,0.011325952518272626
2025-01-08 10:18:55.810935040,-0.12703198,0.009986972896695642
2025-01-08 10:18:55.820946944,-0.13278687,0.008628817623904394
2025-01-08 10:18:55.830984960,-0.11137861,0.007252664128378448
2025-01-08 10:18:55.840983040,-0.10719687,0.005859704996325616
2025-01-08 10:18:55.850988032,-0.15885013,0.004451146942304315
2025-01-08 10:18:55.860966912,-0.20644593,0.0030282097682478933
2025-01-08 10:18:55.870925824,-0.21624368,0.0015921253117867928
2025-01-08 10:18:55.880837888,-0.19899482,0.00014413638477937102
2025-01-08 10:18:55.890822912,-0.17521769,-0.0013145042970363692
2025-01-08 10:18:55.900794880,-0.15134251,-0.0027825351923467653
2025-01-08 10:18:55.910960896,-0.1311329,-0.00425868701959293
2025-01-08 10:18:55.920923904,-0.12261009,-0.005741683848395505
2025-01-08 10:18:55.930941952,-0.11044073,-0.007230244196134145
2025-01-08 10:18:55.941025024,-0.0843398,-0.00872308212873918
2025-01-08 10:18:55.950945024,-0.05524385,-0.010218908364751315
2025-01-08 10:18:55.960918784,-0.0416047,-0.011716431381700403
2025-01-08 10:18:55.971016960,-0.05148137,-0.013214358523855208
2025-01-08 10:18:55.980904192,-0.08738756,-0.014711397110394075
2025-01-08 10:18:55.993815808,-0.12145358,-0.016206255543048137
2025-01-08 10:18:56.000939008,-0.15533531,-0.017697644412266532
2025-01-08 10:18:56.011003904,-0.18490028,-0.019184277600960236
2025-01-08 10:18:56.021042944,-0.20056182,-0.02066487338487792
2025-01-08 10:18:56.031049984,-0.18590003,-0.022138155528675017
2025-01-08 10:18:56.040942080,-0.13682878,-0.023602854376738935
2025-01-08 10:18:56.050970112,-0.0951553,-0.02505770793784004
2025-01-08 10:18:56.060993792,-0.06673956,-0.026501462962683235
2025-01-08 10:18:56.070984960,-0.04429543,-0.027932876013439963
2025-01-08 10:18:56.081011968,-0.01300704,-0.029350714524351455
2025-01-08 10:18:56.091043072,0.00755417,-0.030753757852498866
2025-01-08 10:18:56.101093120,0.02127296,-0.032140798317846775
2025-01-08 10:18:56.111219968,0.05478781,-0.03351064223167444
2025-01-08 10:18:56.121084928,0.08279824,-0.03486211091252325
2025-01-08 10:18:56.131102208,0.07895148,-0.03619404168879499
2025-01-08 10:18:56.142863872,0.06975514,-0.03750528888715124
2025-01-08 10:18:56.151113984,0.0919708,-0.038794724805876264
2025-01-08 10:18:56.161082112,0.10261732,-0.040061240672377395
2025-01-08 10:18:56.170958080,0.06757343,-0.041303747584012306
2025-01-08 10:18:56.181097984,0.0781967,-0.042521177431448405
2025-01-08 10:18:56.191126016,0.1262731,-0.043712483803771206
2025-01-08 10:18:56.201148928,0.16100538,-0.044876642874579535
2025-01-08 10:18:56.211204096,0.20038736,-0.046012654268317715
2025-01-08 10:18:56.221123072,0.26577133,-0.04711954190611562
2025-01-08 10:18:56.231138048,0.36570078,-0.04819635483042269
2025-01-08 10:18:56.241144064,0.46606749,-0.049242168007742546
2025-01-08 10:18:56.251131136,0.52765954,-0.05025608310879303
2025-01-08 10:18:56.261143808,0.55949396,-0.05123722926543589
2025-01-08 10:18:56.271159808,0.57433611,-0.05218476380374237
2025-01-08 10:18:56.283580160,0.5937922,-0.053097872952578284
2025-01-08 10:18:56.291305984,0.63381004,-0.05397577252711751
2025-01-08 10:18:56.301398016,0.67285842,-0.05481770858671166
2025-01-08 10:18:56.311287040,0.68753773,-0.05562295806656733
2025-01-08 10:18:56.321144064,0.64651221,-0.05639082938270359
2025-01-08 10:18:56.331144192,0.60790318,-0.05712066300968843
2025-01-08 10:18:56.341170176,0.57197303,-0.057811832030673097
2025-01-08 10:18:56.351144960,0.54930383,-0.05846374265926838
2025-01-08 10:18:56.361092096,0.5290215,-0.05907583473283348
2025-01-08 10:18:56.371282176,0.48902833,-0.05964758217676818
2025-01-08 10:18:56.381136896,0.44904709,-0.06017849343942936
2025-01-08 10:18:56.391180032,0.42205644,-0.06066811189731304
2025-01-08 10:18:56.401221120,0.40252072,-0.06111601623017327
2025-01-08 10:18:56.411426048,0.38425761,-0.06152182076577222
2025-01-08 10:18:56.421366016,0.36179787,-0.06188517579398213
2025-01-08 10:18:56.431237888,0.33747554,-0.06220576784998842
2025-01-08 10:18:56.441297152,0.30907416,-0.06248331996636716
2025-01-08 10:18:56.451303936,0.26176077,-0.06271759189383726
2025-01-08 10:18:56.461421056,0.19662589,-0.06290838029051724
2025-01-08 10:18:56.471355904,0.1377632,-0.06305551887953904
2025-01-08 10:18:56.481380864,0.08805037,-0.0631588785749032
2025-01-08 10:18:56.491405056,0.09867877,-0.0632183675754827
2025-01-08 10:18:56.501415936,0.21696848,-0.06323393142711312
2025-01-08 10:18:56.511491072,0.31116742,-0.0632055530527325
2025-01-08 10:18:56.521415936,0.23802996,-0.06313325275056271
2025-01-08 10:18:56.531586816,0.12121928,-0.06301708816034918
2025-01-08 10:18:56.541379840,0.02771384,-0.06285715419770674
2025-01-08 10:18:56.551405824,-0.07988501,-0.06265358295664361
2025-01-08 10:18:56.561506048,-0.20456421,-0.062406543580363315
2025-01-08 10:18:56.571453952,-0.29100221,-0.062116242100472306
2025-01-08 10:18:56.581483008,-0.29931056,-0.061782921244748025
2025-01-08 10:18:56.591463168,-0.2131449,-0.06140686021364654
2025-01-08 10:18:56.601472000,-0.14582014,-0.060988374425759516
2025-01-08 10:18:56.611813120,-0.08771068,-0.0605278152324533
2025-01-08 10:18:56.621509120,0.02293599,-0.06002556960194986
2025-01-08 10:18:56.631478016,0.18565428,-0.05948205977313728
2025-01-08 10:18:56.641483008,0.31742167,-0.0588977428794207
2025-01-08 10:18:56.651527936,0.38361144,-0.058273110542951076
2025-01-08 10:18:56.661545984,0.42577076,-0.05760868843959463
2025-01-08 10:18:56.671574016,0.50083417,-0.0569050358350301
2025-01-08 10:18:56.681552896,0.57818294,-0.056162745092385766
2025-01-08 10:18:56.691500800,0.61555576,-0.05538244115185179
2025-01-08 10:18:56.701518080,0.59619612,-0.05456478098272798
2025-01-08 10:18:56.711884032,0.56251001,-0.053710453008389336
2025-01-08 10:18:56.721595904,0.55854845,-0.05282017650467551
2025-01-08 10:18:56.731527168,0.58845443,-0.05189470097223285
2025-01-08 10:18:56.741616128,0.60101038,-0.05093480548335831
2025-01-08 10:18:56.751930880,0.57713336,-0.04994129800391774
2025-01-08 10:18:56.761883136,0.53862935,-0.048915014690931416
2025-01-08 10:18:56.772136960,0.51679277,-0.04785681916643875
2025-01-08 10:18:56.781806080,0.50707185,-0.04676760176827798
2025-01-08 10:18:56.791851008,0.49332803,-0.04564827877842962
2025-01-08 10:18:56.801660928,0.46242231,-0.044499791629599474
2025-01-08 10:18:56.811826944,0.41932946,-0.043323106090726766
2025-01-08 10:18:56.821664000,0.3816635,-0.042119211432127865
2025-01-08 10:18:56.831715072,0.38806552,-0.040889119570997744
2025-01-08 10:18:56.841666048,0.42031062,-0.03963386419801164
2025-01-08 10:18:56.851595008,0.43152767,-0.03835449988578177
2025-01-08 10:18:56.861618944,0.43138707,-0.03705210117994212
2025-01-08 10:18:56.871820800,0.42160809,-0.03572776167364693
2025-01-08 10:18:56.881700096,0.44196284,-0.034382593066281844
2025-01-08 10:18:56.891670016,0.48468345,-0.03301772420720231
2025-01-08 10:18:56.901588992,0.5058105,-0.03163430012532298
2025-01-08 10:18:56.911748864,0.47184217,-0.03023348104539583
2025-01-08 10:18:56.921860864,0.36384881,-0.028816441391824536
2025-01-08 10:18:56.931857152,0.24100757,-0.02738436878087401
2025-01-08 10:18:56.941696000,0.13782382,-0.025938463002140835
2025-01-08 10:18:56.951777024,0.06449091,-0.02447993499016349
2025-01-08 10:18:56.961745920,0.01746005,-0.02301000578705393
2025-01-08 10:18:56.971784192,-0.05161273,-0.021529905497043873
2025-01-08 10:18:56.981734144,-0.13269591,-0.020040872233843293
2025-01-08 10:18:56.991769088,-0.17473114,-0.018544151061714247
2025-01-08 10:18:57.001699072,-0.14420176,-0.017040992931168425
2025-01-08 10:18:57.011808000,-0.12007964,-0.015532653610202582
2025-01-08 10:18:57.021797888,-0.11043727,-0.014020392611985328
2025-01-08 10:18:57.031969024,-0.06556427,-0.01250547211991617
2025-01-08 10:18:57.041803008,-0.04522973,-0.01098915591097572
2025-01-08 10:18:57.051801856,-0.01575947,-0.0094727082782884
2025-01-08 10:18:57.061844992,0.0155285,-0.007957392953820034
2025-01-08 10:18:57.071755776,0.02466726,-0.006444472032130355
2025-01-08 10:18:57.081753856,-0.01361239,-0.0049352048960998205
2025-01-08 10:18:57.091814144,-0.0232594,-0.0034308471455487765
2025-01-08 10:18:57.101838080,0.00673753,-0.0019326495296634158
2025-01-08 10:18:57.111902976,0.00381374,-0.00044185688413783897
2025-01-08 10:18:57.121835008,-0.06388068,0.0010402929260599908
2025-01-08 10:18:57.131947008,-0.19162381,0.002512570057398047
2025-01-08 10:18:57.141899008,-0.29705179,0.00397375373107142
2025-01-08 10:18:57.151934976,-0.32800055,0.005422633267986596
2025-01-08 10:18:57.161974784,-0.29085433,0.006858009114557567
2025-01-08 10:18:57.171904000,-0.28244662,0.008278693858443166
2025-01-08 10:18:57.181915136,-0.27853143,0.009683513233360582
2025-01-08 10:18:57.191905024,-0.23751128,0.0110713071121235
2025-01-08 10:18:57.201971968,-0.18293273,0.012440930487061014
2025-01-08 10:18:57.211977984,-0.17758167,0.013791254436985529
2025-01-08 10:18:57.221963008,-0.25996906,0.015121167079890896
2025-01-08 10:18:57.232098048,-0.36578155,0.01642957451057283
2025-01-08 10:18:57.241957888,-0.50815517,0.01771540172237813
2025-01-08 10:18:57.252005120,-0.62482995,0.01897759351230337
2025-01-08 10:18:57.262017024,-0.65098703,0.020215115368676737
2025-01-08 10:18:57.271985920,-0.64017957,0.021426954340674858
2025-01-08 10:18:57.282018816,-0.65410626,0.022612119888938777
2025-01-08 10:18:57.292079872,-0.71297938,0.023769644716573488
2025-01-08 10:18:57.302006016,-0.77967316,0.024898585579828998
2025-01-08 10:18:57.312128000,-0.84608799,0.02599802407778219
2025-01-08 10:18:57.322030080,-0.83830053,0.027067067420353415
2025-01-08 10:18:57.332151808,-0.76199043,0.028104849174014315
2025-01-08 10:18:57.342001920,-0.75661904,0.02911052998455888
2025-01-08 10:18:57.352036864,-0.8184104,0.03008329827633403
2025-01-08 10:18:57.363791104,-0.85881436,0.031022370927342138
2025-01-08 10:18:57.372313088,-0.86916697,0.03192699391965168
2025-01-08 10:18:57.382169088,-0.86457878,0.03279644296457307
2025-01-08 10:18:57.392090112,-0.82737422,0.03363002410207813
2025-01-08 10:18:57.402126080,-0.82177901,0.03442707427396328
2025-01-08 10:18:57.412179968,-0.9096958,0.03518696187028138
2025-01-08 10:18:57.422151168,-1.00208616,0.035909087248588656
2025-01-08 10:18:57.432143872,-0.98494881,0.036592883225575586
2025-01-08 10:18:57.442120960,-0.88336366,0.03723781554067779
2025-01-08 10:18:57.452194816,-0.76955092,0.037843383291284456
2025-01-08 10:18:57.462208000,-0.67551124,0.03840911933918578
2025-01-08 10:18:57.472111872,-0.63056344,0.038934590687929246
2025-01-08 10:18:57.482341120,-0.59937072,0.03941939883077517
2025-01-08 10:18:57.492098048,-0.51696527,0.0398631800689712
2025-01-08 10:18:57.502192128,-0.39144319,0.040265605800087624
2025-01-08 10:18:57.512240896,-0.29443383,0.04062638277618389
2025-01-08 10:18:57.522226176,-0.28716266,0.04094525333160062
2025-01-08 10:18:57.532238848,-0.30038136,0.04122199558019922
2025-01-08 10:18:57.542243072,-0.30768192,0.041456423581895205
2025-01-08 10:18:57.552301056,-0.25914305,0.041648387478360555
2025-01-08 10:18:57.562222080,-0.20874316,0.041797773597794255
2025-01-08 10:18:57.572230144,-0.15858531,0.041904504528688206
2025-01-08 10:18:57.582245120,-0.11159265,0.04196853916254144
2025-01-08 10:18:57.592283904,-0.12517411,0.04198987270550404
2025-01-08 10:18:57.602300928,-0.16577834,0.04196853665895467
2025-01-08 10:18:57.612393984,-0.15384638,0.0419045987690474
2025-01-08 10:18:57.622267904,-0.08915287,0.04179816294528664
2025-01-08 10:18:57.632293888,-0.04459238,0.041649369148214876
2025-01-08 10:18:57.642488064,-0.02889562,0.041458393246328905
2025-01-08 10:18:57.652342016,-0.03589725,0.04122544684236034
2025-01-08 10:18:57.662288896,-0.06510067,0.04095077706908652
2025-01-08 10:18:57.672285184,-0.08937097,0.04063466635486402
2025-01-08 10:18:57.682331136,-0.060615,0.04027743215909982
2025-01-08 10:18:57.692284160,-0.00420928,0.03987942667790306
2025-01-08 10:18:57.702301952,0.01892126,0.03944103652018604
2025-01-08 10:18:57.712524032,-0.01197803,0.03896268235450741
2025-01-08 10:18:57.722476032,-0.04563731,0.03844481852697324
2025-01-08 10:18:57.732521984,-0.04592496,0.037887932650543237
2025-01-08 10:18:57.742855168,-0.08806568,0.037292545166103454
2025-01-08 10:18:57.752616960,-0.13301456,0.036659208875701246
2025-01-08 10:18:57.762515968,-0.10636407,0.03598850844835358
2025-01-08 10:18:57.772517888,-0.06918913,0.03528105989886863
2025-01-08 10:18:57.782490112,-0.04568964,0.034537510040140336
2025-01-08 10:18:57.792544000,-0.03793037,0.03375853590939974
2025-01-08 10:18:57.802365184,-0.015477,0.03294484416892822
2025-01-08 10:18:57.812396032,-0.02987272,0.032097170481759064
2025-01-08 10:18:57.822524928,-0.06425393,0.03121627886291655
2025-01-08 10:18:57.832494848,-0.06949157,0.03030296100676061
2025-01-08 10:18:57.842468864,-0.0894022,0.029358035591025747
2025-01-08 10:18:57.852612096,-0.12397337,0.028382347558164264
2025-01-08 10:18:57.862530048,-0.16261113,0.027376767374619894
2025-01-08 10:18:57.872476928,-0.17204595,0.026342190268679493
2025-01-08 10:18:57.882572032,-0.19330597,0.02527953544756707
2025-01-08 10:18:57.892549888,-0.19705915,0.02418974529446143
2025-01-08 10:18:57.902544896,-0.13762796,0.02307378454613761
2025-01-08 10:18:57.912478976,-0.07211298,0.021932639451945124
2025-01-08 10:18:57.922811136,-0.03553504,0.020767316914856355
2025-01-08 10:18:57.932460032,-0.01479536,0.019578843615328696
2025-01-08 10:18:57.942420992,0.02442563,0.018368265118741404
2025-01-08 10:18:57.952413184,0.05062294,0.017136644967181456
2025-01-08 10:18:57.962418944,0.0577144,0.015885063756364604
2025-01-08 10:18:57.972524032,0.08409745,0.014614618198490931
2025-01-08 10:18:57.982418176,0.12570584,0.013326420171846978
2025-01-08 10:18:57.992544768,0.15515846,0.01202159575797413
2025-01-08 10:18:58.002465024,0.17028236,0.010701284267238164
2025-01-08 10:18:58.012473088,0.20457745,0.009366637253639747
2025-01-08 10:18:58.022448128,0.26900071,0.00801881751971688
2025-01-08 10:18:58.032783104,0.33671927,0.006658998112398732
2025-01-08 10:18:58.042563840,0.39797056,0.005288361310676038
2025-01-08 10:18:58.052498176,0.43442619,0.003908097605960978
2025-01-08 10:18:58.062556928,0.45343292,0.002519404676015348
2025-01-08 10:18:58.072567040,0.48804677,0.001123486353330101
2025-01-08 10:18:58.082504960,0.53539479,-0.0002784484111553715
2025-01-08 10:18:58.092571136,0.57100731,-0.0016851865881026122
2025-01-08 10:18:58.102515968,0.60256588,-0.0030955121126983575
2025-01-08 10:18:58.112590080,0.63325667,-0.0045082069295564655
2025-01-08 10:18:58.122636032,0.65293568,-0.005922052038700216
2025-01-08 10:18:58.135488000,0.65042615,-0.007335828541727073
2025-01-08 10:18:58.143020032,0.60502106,-0.008748318687257083
2025-01-08 10:18:58.153917184,0.52799928,-0.010158306914768848
2025-01-08 10:18:58.162828032,0.44237906,-0.01156458089592746
2025-01-08 10:18:58.172724992,0.3832255,-0.012965932572511761
2025-01-08 10:18:58.182693888,0.33465171,-0.014361159190052158
2025-01-08 10:18:58.192578048,0.29779565,-0.015749064326292927
2025-01-08 10:18:58.202920960,0.28614777,-0.0171284589135999
2025-01-08 10:18:58.212788992,0.28418702,-0.018498162254437258
2025-01-08 10:18:58.222796032,0.28601277,-0.019857003029046656
2025-01-08 10:18:58.232774144,0.29703969,-0.021203820294465756
2025-01-08 10:18:58.242772992,0.290488,-0.022537464474034166
2025-01-08 10:18:58.252803072,0.25403601,-0.023856798336540776
2025-01-08 10:18:58.262937088,0.1976186,-0.025160697964176724
2025-01-08 10:18:58.272783872,0.19192648,-0.026448053708469477
2025-01-08 10:18:58.282790912,0.27408481,-0.02771777113338153
2025-01-08 10:18:58.292808960,0.34811181,-0.028968771944770745
2025-01-08 10:18:58.302760960,0.37074703,-0.030199994905421263
2025-01-08 10:18:58.312925184,0.35508192,-0.031410396734864746
2025-01-08 10:18:58.322870016,0.31771052,-0.0325989529932278
2025-01-08 10:18:58.332887040,0.2508496,-0.03376465894835381
2025-01-08 10:18:58.342843136,0.14116138,-0.03490653042546148
2025-01-08 10:18:58.352952832,-0.0356952,-0.0360236046386206
2025-01-08 10:18:58.362999808,-0.27299052,-0.03711494100333723
2025-01-08 10:18:58.372924928,-0.44066179,-0.03817962192956196
2025-01-08 10:18:58.382818048,-0.49994558,-0.03921675359444627
2025-01-08 10:18:58.392893184,-0.47566074,-0.04022546669419595
2025-01-08 10:18:58.402936832,-0.36469001,-0.04120491717438366
2025-01-08 10:18:58.413018880,-0.22974789,-0.04215428693810354
2025-01-08 10:18:58.422956032,-0.08456212,-0.043072784531371214
2025-01-08 10:18:58.432986112,0.06030047,-0.04395964580518976
2025-01-08 10:18:58.442949888,0.20574528,-0.04481413455372465
2025-01-08 10:18:58.452987904,0.36046743,-0.04563554312805029
2025-01-08 10:18:58.463614976,0.48607671,-0.046423193024952576
2025-01-08 10:18:58.472986880,0.57092595,-0.04717643545029269
2025-01-08 10:18:58.483035136,0.61644953,-0.047894651856461065
2025-01-08 10:18:58.492903936,0.62669462,-0.0485772544534708
2025-01-08 10:18:58.503011072,0.63699901,-0.04922368669326398
2025-01-08 10:18:58.513089792,0.65505064,-0.0498334237268281
2025-01-08 10:18:58.523053056,0.66188258,-0.050405972833740785
2025-01-08 10:18:58.533065984,0.63649458,-0.05094087382378847
2025-01-08 10:18:58.543042048,0.60899413,-0.05143769941032534
2025-01-08 10:18:58.553090048,0.58927649,-0.051896055555065546
2025-01-08 10:18:58.563249152,0.58733112,-0.0523155817840262
2025-01-08 10:18:58.572839936,0.57481188,-0.052695951474361166
2025-01-08 10:18:58.583729920,0.52847862,-0.05303687211185544
2025-01-08 10:18:58.593323008,0.45521563,-0.053338085518869684
2025-01-08 10:18:58.603744000,0.36064422,-0.05359936805255441
2025-01-08 10:18:58.613042176,0.28850573,-0.053820530773176625
2025-01-08 10:18:58.623023104,0.28605777,-0.054001419582428566
2025-01-08 10:18:58.633071872,0.31154245,-0.05414191533161271
2025-01-08 10:18:58.643090944,0.3250736,-0.05424193389962512
2025-01-08 10:18:58.653122816,0.32028782,-0.054301426240682654
2025-01-08 10:18:58.663258112,0.3026399,-0.054320378401769336
2025-01-08 10:18:58.673387008,0.30666727,-0.054298811509797935
2025-01-08 10:18:58.683250944,0.32535046,-0.05423678172851488
2025-01-08 10:18:58.693288960,0.39764327,-0.054134380185196763
2025-01-08 10:18:58.703428864,0.52150714,-0.05399173286721819
2025-01-08 10:18:58.713347072,0.59881347,-0.05380900048859181
2025-01-08 10:18:58.723321088,0.60966468,-0.05358637832661023
2025-01-08 10:18:58.733197824,0.57332951,-0.053324096028744
2025-01-08 10:18:58.743580160,0.48380941,-0.053022417389975623
2025-01-08 10:18:58.753144064,0.37915385,-0.052681640100774925
2025-01-08 10:18:58.763150848,0.27025294,-0.052302095465945754
2025-01-08 10:18:58.773273088,0.1494295,-0.05188414809460009
2025-01-08 10:18:58.783184896,0.05820793,-0.051428195561539575
2025-01-08 10:18:58.793217792,-0.0088129,-0.050934668040347984
2025-01-08 10:18:58.803314944,-0.0536918,-0.05040402790852601
2025-01-08 10:18:58.813319936,-0.07590193,-0.049836769325017884
2025-01-08 10:18:58.823230976,-0.07049763,-0.04923341778050957
2025-01-08 10:18:58.833241088,-0.04351825,-0.04859452962089503
2025-01-08 10:18:58.843244032,0.00978518,-0.0479206915443367
2025-01-08 10:18:58.853298944,0.02777433,-0.04721252007236173
2025-01-08 10:18:58.863259136,-0.01622796,-0.04647066099546405
2025-01-08 10:18:58.874288128,-0.08477414,-0.04569578879370107
2025-01-08 10:18:58.883224064,-0.10843396,-0.04488860603279369
2025-01-08 10:18:58.893202944,-0.11967242,-0.04404984273626386
2025-01-08 10:18:58.903194880,-0.13892227,-0.04318025573415898
2025-01-08 10:18:58.913255936,-0.17769176,-0.04228062798893669
2025-01-08 10:18:58.923245824,-0.19813079,-0.04135176789910036
2025-01-08 10:18:58.933240832,-0.19432628,-0.04039450858119589
2025-01-08 10:18:58.943296000,-0.23507804,-0.03940970713079888
2025-01-08 10:18:58.953165056,-0.32044625,-0.03839824386313703
2025-01-08 10:18:58.963448064,-0.3940528,-0.03736102153401429
2025-01-08 10:18:58.973340928,-0.43238646,-0.03629896454171431
2025-01-08 10:18:58.983377920,-0.38025832,-0.035213018110582486
2025-01-08 10:18:58.993402112,-0.25882661,-0.034104147456996664
2025-01-08 10:18:59.003459072,-0.19122809,-0.03297333693845584
2025-01-08 10:18:59.013500928,-0.15288782,-0.03182158918652613
2025-01-08 10:18:59.023438848,-0.10700679,-0.030649924224400268
2025-01-08 10:18:59.033467904,-0.06856418,-0.02945937856983979
2025-01-08 10:18:59.043483904,-0.08391213,-0.02825100432427712
2025-01-08 10:18:59.053456896,-0.09963781,-0.027025868248873913
2025-01-08 10:18:59.063486208,-0.1333409,-0.02578505082833469
2025-01-08 10:18:59.073432064,-0.25281656,-0.024529645323292368
2025-01-08 10:18:59.083527936,-0.37226737,-0.0232607568120865
2025-01-08 10:18:59.093476096,-0.49284285,-0.021979501222766974
2025-01-08 10:18:59.103609088,-0.58418679,-0.02068700435616355
2025-01-08 10:18:59.113487872,-0.63158137,-0.019384400900867103
2025-01-08 10:18:59.123483904,-0.64879364,-0.018072833440978788
2025-01-08 10:18:59.133502976,-0.6462934,-0.016753451457485878
2025-01-08 10:18:59.143510016,-0.69131452,-0.015427410324129085
2025-01-08 10:18:59.153527040,-0.68615288,-0.014095870298633443
2025-01-08 10:18:59.163535104,-0.59291404,-0.012759995510173362
2025-01-08 10:18:59.173531904,-0.54656929,-0.011420952943950837
2025-01-08 10:18:59.183739904,-0.62647879,-0.01007991142376393
2025-01-08 10:18:59.193571072,-0.71694374,-0.008738040593446843
2025-01-08 10:18:59.203501824,-0.76323009,-0.0073965098980614844
2025-01-08 10:18:59.214001920,-0.75913489,-0.006056487565722186
2025-01-08 10:18:59.223529984,-0.75061011,-0.0047191395909337045
2025-01-08 10:18:59.233822208,-0.76086766,-0.0033856287203200266
2025-01-08 10:18:59.243570944,-0.80556244,-0.002057113441621328
2025-01-08 10:18:59.253562880,-0.82699257,-0.0007347469768318851
2025-01-08 10:18:59.263627008,-0.75814527,0.0005803237196520447
2025-01-08 10:18:59.273639936,-0.67584747,0.0018869589570097698
2025-01-08 10:18:59.283745024,-0.63931257,0.003184027297238461
2025-01-08 10:18:59.293637888,-0.624991,0.0044704065368081775
2025-01-08 10:18:59.303670784,-0.62785041,0.005744984679882784
2025-01-08 10:18:59.314798080,-0.58468974,0.00700666090226619
2025-01-08 10:18:59.323617024,-0.48883229,0.008254346505245168
2025-01-08 10:18:59.334011136,-0.41990399,0.009486965858504951
2025-01-08 10:18:59.343746048,-0.39576244,0.01070345733130639
2025-01-08 10:18:59.353675008,-0.36062783,0.011902774211121531
2025-01-08 10:18:59.363742976,-0.32584482,0.013083885608938473
2025-01-08 10:18:59.373752064,-0.31650311,0.014245777350453714
2025-01-08 10:18:59.383804160,-0.3197099,0.015387452852387386
2025-01-08 10:18:59.393816832,-0.29159373,0.016507933983165895
2025-01-08 10:18:59.403877888,-0.26779419,0.0176062619072324
2025-01-08 10:18:59.413754112,-0.29337543,0.018681497912259544
2025-01-08 10:18:59.423762176,-0.31774271,0.01973272421855198
2025-01-08 10:18:59.433693952,-0.25310498,0.020759044769945532
2025-01-08 10:18:59.443794944,-0.12230456,0.021759586005520956
2025-01-08 10:18:59.453681920,-0.00337058,0.022733497611472118
2025-01-08 10:18:59.463924992,0.06641132,0.023679953252481425
2025-01-08 10:18:59.473776128,0.05516273,0.024598151281976
2025-01-08 10:18:59.483782912,0.01795501,0.02548731543065511
2025-01-08 10:18:59.493773056,-0.00524634,0.026346695472698443
2025-01-08 10:18:59.503841024,-0.01963675,0.02717556786908403
2025-01-08 10:18:59.513906944,-0.04199368,0.027973236387466207
2025-01-08 10:18:59.523844864,-0.07680041,0.028739032698080955
2025-01-08 10:18:59.533873920,-0.10743499,0.02947231694516989
2025-01-08 10:18:59.543836160,-0.14074165,0.030172478293434567
2025-01-08 10:18:59.553879040,-0.15016854,0.030838935449052522
2025-01-08 10:18:59.563849984,-0.12683696,0.03147113715481261
2025-01-08 10:18:59.573867008,-0.09611762,0.03206856265894409
2025-01-08 10:18:59.583851008,-0.03819191,0.0326307221572424
2025-01-08 10:18:59.593873920,0.03689986,0.03315715720811331
2025-01-08 10:18:59.603831040,0.04990727,0.033647441120183134
2025-01-08 10:18:59.614082048,0.04535228,0.03410117931214502
2025-01-08 10:18:59.624030208,0.01581353,0.034518009644535955
2025-01-08 10:18:59.634011136,-0.02533925,0.034897602723164875
2025-01-08 10:18:59.644104960,-0.08206344,0.03523966217393182
2025-01-08 10:18:59.654038784,-0.11315602,0.035543924888810634
2025-01-08 10:18:59.664056064,-0.1453079,0.0358101612427846
2025-01-08 10:18:59.674031872,-0.20551789,0.03603817528155536
2025-01-08 10:18:59.684057088,-0.22660077,0.036227804879867744
2025-01-08 10:18:59.696013056,-0.22192264,0.036378921870319825
2025-01-08 10:18:59.704348928,-0.21113867,0.036491432142551496
2025-01-08 10:18:59.713923840,-0.17519623,0.036565275712732895
2025-01-08 10:18:59.723896064,-0.12405777,0.03660042676329756
2025-01-08 10:18:59.734010880,-0.08018351,0.03659689365289102
2025-01-08 10:18:59.744029952,-0.05675852,0.036554718896533396
2025-01-08 10:18:59.754045952,-0.03954363,0.03647397911601671
2025-01-08 10:18:59.764040960,-0.04223782,0.036354784960587444
2025-01-08 10:18:59.774010880,-0.06098652,0.03619728099798658
2025-01-08 10:18:59.784018944,-0.08963805,0.03600164557594754
2025-01-08 10:18:59.794003968,-0.108235,0.03576809065427797
2025-01-08 10:18:59.804097792,-0.09567082,0.03549686160767395
2025-01-08 10:18:59.814109952,-0.08359718,0.03518823699944458
2025-01-08 10:18:59.823965184,-0.07465285,0.03484252832634605
2025-01-08 10:18:59.834095104,-0.06070602,0.03446007973475203
2025-01-08 10:18:59.844228864,-0.05128491,0.03404126770841062
2025-01-08 10:18:59.854049024,-0.04064637,0.03358650072806282
2025-01-08 10:18:59.864520192,-0.00814652,0.03309621890322162
2025-01-08 10:18:59.874083072,0.02916056,0.032570893576435576
2025-01-08 10:18:59.884076032,0.09264231,0.03201102690038357
2025-01-08 10:18:59.894108160,0.16409433,0.031417151388170576
2025-01-08 10:18:59.904109056,0.21043074,0.03078982943721959
2025-01-08 10:18:59.914170880,0.21647561,0.03012965282717403
2025-01-08 10:18:59.924132096,0.20733792,0.029437242192251467
2025-01-08 10:18:59.934166784,0.21511704,0.028713246468507016
2025-01-08 10:18:59.944140800,0.23542607,0.027958342316491677
2025-01-08 10:18:59.954338048,0.24726611,0.027173233519805533
2025-01-08 10:18:59.964154880,0.26610035,0.026358650360074797
2025-01-08 10:18:59.974138880,0.32395101,0.025515348968892262
2025-01-08 10:18:59.984163072,0.38901615,0.02464411065729028
2025-01-08 10:18:59.994228992,0.45248753,0.023745741223326806
2025-01-08 10:19:00.009711872,0.4982695,0.022821070238389272
2025-01-08 10:19:00.014283008,0.49475473,0.021870950312836666
2025-01-08 10:19:00.024184832,0.46076226,0.020896256341618354
2025-01-08 10:19:00.034252800,0.47483253,0.019897884730526633
2025-01-08 10:19:00.044260096,0.53062963,0.018876752603755445
2025-01-08 10:19:00.054157056,0.57600617,0.01783379699345358
2025-01-08 10:19:00.064271872,0.57507944,0.016769974011978703
2025-01-08 10:19:00.074234880,0.54719454,0.015686258007568794
2025-01-08 10:19:00.084333824,0.52973396,0.014583640704167521
2025-01-08 10:19:00.094266880,0.50175774,0.013463130326148903
2025-01-08 10:19:00.104284160,0.4592889,0.012325750708702565
2025-01-08 10:19:00.114407936,0.43336314,0.011172540394651521
2025-01-08 10:19:00.124283136,0.40407819,0.0100045517184885
2025-01-08 10:19:00.134295040,0.3666485,0.00882284987842348
2025-01-08 10:19:00.144390144,0.2948215,0.007628511997251187
2025-01-08 10:19:00.154393856,0.22693092,0.00642262617285209
2025-01-08 10:19:00.164364032,0.1769914,0.005206290519150937
2025-01-08 10:19:00.174309888,0.15286231,0.00398061219836804
2025-01-08 10:19:00.184331776,0.13837785,0.002746706445399172
2025-01-08 10:19:00.194377984,0.11786234,0.0015056955851752343
2025-01-08 10:19:00.204400128,0.11935592,0.0002587080438513097
2025-01-08 10:19:00.214628864,0.14503253,-0.0009931226453142226
2025-01-08 10:19:00.224365824,0.19311589,-0.002248658840529648
2025-01-08 10:19:00.234374144,0.20674425,-0.0035067597936204228
2025-01-08 10:19:00.244429056,0.23913288,-0.00476628265489223
2025-01-08 10:19:00.254450944,0.28034484,-0.006026083479832791
2025-01-08 10:19:00.264478976,0.18862337,-0.007285018236779624
2025-01-08 10:19:00.274449152,0.02198833,-0.008541943814678994
2025-01-08 10:19:00.284454144,-0.130988,-0.009795719030061047
2025-01-08 10:19:00.294428160,-0.22202158,-0.011045205632357271
2025-01-08 10:19:00.304416768,-0.24261665,-0.012289269306687977
2025-01-08 10:19:00.314726144,-0.22269213,-0.01352678067324793
2025-01-08 10:19:00.324486144,-0.2279979,-0.014756616282424634
2025-01-08 10:19:00.334532096,-0.22999799,-0.01597765960478303
2025-01-08 10:19:00.344474112,-0.15185922,-0.017188802015059443
2025-01-08 10:19:00.354492928,-0.02878898,-0.018388943769306974
2025-01-08 10:19:00.364506880,0.08741385,-0.01957699497434869
2025-01-08 10:19:00.374535168,0.19278121,-0.020751876548690477
2025-01-08 10:19:00.384499968,0.30836993,-0.021912521174064822
2025-01-08 10:19:00.394510080,0.44437629,-0.023057874236774564
2025-01-08 10:19:00.404547840,0.54389149,-0.024186894758021108
2025-01-08 10:19:00.414701824,0.58635604,-0.02529855631240756
2025-01-08 10:19:00.424613120,0.58949274,-0.026391847933818834
2025-01-08 10:19:00.434569984,0.57366031,-0.02746577500789158
2025-01-08 10:19:00.444456192,0.5414561,-0.028519360150297317
2025-01-08 10:19:00.456399872,0.5103026,-0.029551644070075184
2025-01-08 10:19:00.468302080,0.48333836,-0.030561686417264224
2025-01-08 10:19:00.474667008,0.46029037,-0.03154856661409622
2025-01-08 10:19:00.484657152,0.44907665,-0.03251138466902706
2025-01-08 10:19:00.494556928,0.4290548,-0.033449261972897146
2025-01-08 10:19:00.504574976,0.4070738,-0.034361342076528585
2025-01-08 10:19:00.514743040,0.37488037,-0.03524679144908024
2025-01-08 10:19:00.524590080,0.34124553,-0.03610480021650167
2025-01-08 10:19:00.534636032,0.32646,-0.036934582879441076
2025-01-08 10:19:00.544668928,0.34392476,-0.03773537900998148
2025-01-08 10:19:00.554704896,0.3890093,-0.03850645392659772
2025-01-08 10:19:00.564726016,0.43154413,-0.03924709934674408
2025-01-08 10:19:00.574884864,0.4526726,-0.03995663401650424
2025-01-08 10:19:00.584901120,0.48550969,-0.040634404316751783
2025-01-08 10:19:00.594775808,0.50980544,-0.04127978484529226
2025-01-08 10:19:00.604877824,0.52755332,-0.04189217897447646
2025-01-08 10:19:00.614916096,0.54348332,-0.04247101938379857
2025-01-08 10:19:00.624768000,0.54224992,-0.043015768567009526
2025-01-08 10:19:00.634876928,0.52102333,-0.04352591931330339
2025-01-08 10:19:00.644795904,0.46254158,-0.044000995162152834
2025-01-08 10:19:00.654800896,0.35790074,-0.044440550831393824
2025-01-08 10:19:00.664737024,0.23297429,-0.044844172618182784
2025-01-08 10:19:00.674642944,0.15820217,-0.0452114787724736
2025-01-08 10:19:00.684775168,0.13106662,-0.04554211984268208
2025-01-08 10:19:00.694813952,0.09679157,-0.0458357789932352
2025-01-08 10:19:00.704800000,0.04994839,-0.04609217229372006
2025-01-08 10:19:00.714891008,0.01113278,-0.046311048979377524
2025-01-08 10:19:00.724759040,-0.02057922,-0.046492191682706574
2025-01-08 10:19:00.734962944,-0.03379977,-0.04663541663597203
2025-01-08 10:19:00.744802048,0.01732224,-0.04674057384443263
2025-01-08 10:19:00.754804992,0.10184532,-0.04680754723013175
2025-01-08 10:19:00.764849920,0.14628983,-0.046836254746118355
2025-01-08 10:19:00.774843904,0.14250565,-0.04682664846099262
2025-01-08 10:19:00.784871936,0.09772605,-0.04677871461369264
2025-01-08 10:19:00.794853888,0.01594216,-0.04669247363846884
2025-01-08 10:19:00.804822016,-0.09737635,-0.0465679801600146
2025-01-08 10:19:00.814960128,-0.21081024,-0.04640532295875014
2025-01-08 10:19:00.824852992,-0.27620631,-0.04620462490627947
2025-01-08 10:19:00.834949120,-0.28230864,-0.04596604287106946
2025-01-08 10:19:00.844924928,-0.26370579,-0.04568976759442232
2025-01-08 10:19:00.854921984,-0.24128485,-0.04537602353684104
2025-01-08 10:19:00.864908032,-0.23758042,-0.04502506869491067
2025-01-08 10:19:00.874926080,-0.19787842,-0.0446371943888461
2025-01-08 10:19:00.884977152,-0.13049442,-0.04421272502088031
2025-01-08 10:19:00.894948096,-0.10056186,-0.04375201780469247
2025-01-08 10:19:00.904971008,-0.1318354,-0.043255462466101985
2025-01-08 10:19:00.914993920,-0.17493308,-0.04272348091527703
2025-01-08 10:19:00.924936960,-0.18407935,-0.042156526890732404
2025-01-08 10:19:00.935694848,-0.17849118,-0.041555085575415304
2025-01-08 10:19:00.945036032,-0.16356379,-0.04091967318520101
2025-01-08 10:19:00.955015936,-0.15592259,-0.04025083653014613
2025-01-08 10:19:00.964961024,-0.15820152,-0.03954915254886877
2025-01-08 10:19:00.974992896,-0.18369818,-0.038815227816449034
2025-01-08 10:19:00.985035008,-0.23748028,-0.03804969802626604
2025-01-08 10:19:00.995047168,-0.2815432,-0.03725322744621061
2025-01-08 10:19:01.005094912,-0.2940622,-0.03642650834973433
2025-01-08 10:19:01.017515776,-0.29943323,-0.03557026042221698
2025-01-08 10:19:01.026966016,-0.31209451,-0.03468523014315825
2025-01-08 10:19:01.035291904,-0.32162035,-0.033772190144716614
2025-01-08 10:19:01.045038080,-0.35003459,-0.03283193854714271
2025-01-08 10:19:01.055276032,-0.37636757,-0.03186529827167129
2025-01-08 10:19:01.065638144,-0.3397643,-0.030873116331458617
2025-01-08 10:19:01.075463936,-0.33184493,-0.029856263101167776
2025-01-08 10:19:01.085038848,-0.42515868,-0.028815631565825617
2025-01-08 10:19:01.095030016,-0.55847979,-0.02775213654959246
2025-01-08 10:19:01.105138176,-0.61749595,-0.02666671392510123
2025-01-08 10:19:01.115101952,-0.64586359,-0.0255603198040434
2025-01-08 10:19:01.125153024,-0.71670175,-0.024433929709691264
2025-01-08 10:19:01.135054080,-0.78793615,-0.023288537732065216
2025-01-08 10:19:01.145464832,-0.81539077,-0.02212515566646706
2025-01-08 10:19:01.155261952,-0.78201151,-0.020944812136118162
2025-01-08 10:19:01.165139968,-0.74295557,-0.019748551699651198
2025-01-08 10:19:01.175129856,-0.7068817,-0.01853743394422142
2025-01-08 10:19:01.185209088,-0.71316475,-0.01731253256501291
2025-01-08 10:19:01.195180032,-0.76608688,-0.01607493443192939
2025-01-08 10:19:01.205187072,-0.80277461,-0.014825738644268891
2025-01-08 10:19:01.215273984,-0.83302385,-0.013566055574193362
2025-01-08 10:19:01.225223168,-0.88622266,-0.012297005899813382
2025-01-08 10:19:01.235254016,-0.86897659,-0.011019719628718271
2025-01-08 10:19:01.245228032,-0.77142787,-0.009735335112788434
2025-01-08 10:19:01.255331072,-0.68839109,-0.00844499805513814
2025-01-08 10:19:01.265196032,-0.61099362,-0.007149860510039502
2025-01-08 10:19:01.275258112,-0.49060816,-0.0058510798766885684
2025-01-08 10:19:01.285250048,-0.42058849,-0.004549817887678261
2025-01-08 10:19:01.295234048,-0.42421705,-0.003247239593047661
2025-01-08 10:19:01.305254912,-0.4081561,-0.0019445123407816184
2025-01-08 10:19:01.315335936,-0.39400387,-0.000642804754639581
2025-01-08 10:19:01.325248000,-0.35455722,0.0006567142898094895
2025-01-08 10:19:01.335275008,-0.29436338,0.001952876690060048
2025-01-08 10:19:01.345284864,-0.25838262,0.0032445161415718083
2025-01-08 10:19:01.355366912,-0.23678243,0.004530469161813351
2025-01-08 10:19:01.365358080,-0.2031064,0.0058095761125684
2025-01-08 10:19:01.375341056,-0.19833481,0.0070806822196179675
2025-01-08 10:19:01.385318144,-0.22028708,0.008342638588924206
2025-01-08 10:19:01.395401984,-0.16681516,0.009594303218432538
2025-01-08 10:19:01.405307904,-0.0661096,0.010834542004623257
2025-01-08 10:19:01.415447040,-0.02677619,0.012062229742939459
2025-01-08 10:19:01.425345024,-0.02989811,0.013276251121227508
2025-01-08 10:19:01.435324928,-0.04094839,0.014475501705330941
2025-01-08 10:19:01.445241856,-0.03448576,0.015658888915984274
2025-01-08 10:19:01.455280128,-0.01818144,0.016825332996160812
2025-01-08 10:19:01.465260032,0.00266844,0.017973767968037634
2025-01-08 10:19:01.475291136,0.00657189,0.01910314257874553
2025-01-08 10:19:01.485313792,-0.04251951,0.020212421234086998
2025-01-08 10:19:01.495325952,-0.11759961,0.021300584919409025
2025-01-08 10:19:01.505340160,-0.184394,0.022366632106832627
2025-01-08 10:19:01.515525120,-0.19626594,0.02340957964804988
2025-01-08 10:19:01.525597952,-0.14684135,0.024428463651912775
2025-01-08 10:19:01.535592192,-0.1014933,0.025422340346049673
2025-01-08 10:19:01.545580032,-0.07269442,0.02639028692175859
2025-01-08 10:19:01.555628032,-0.041924,0.02733140236144204
2025-01-08 10:19:01.565587968,0.01571816,0.02824480824786045
2025-01-08 10:19:01.575588864,0.05519181,0.029129649554497806
2025-01-08 10:19:01.585566976,0.0515101,0.02998509541634932
2025-01-08 10:19:01.595501824,0.004044,0.030810339880455756
2025-01-08 10:19:01.605521920,-0.04023236,0.03160460263552812
2025-01-08 10:19:01.615654912,-0.05759859,0.03236712972002158
2025-01-08 10:19:01.625623040,-0.08606106,0.033097194208038624
2025-01-08 10:19:01.636413184,-0.12774378,0.03379409687245609
2025-01-08 10:19:01.645592832,-0.1391027,0.034457166824694976
2025-01-08 10:19:01.656003072,-0.11518592,0.035085762130566425
2025-01-08 10:19:01.665507072,-0.11760533,0.0356792704016511
2025-01-08 10:19:01.675508992,-0.14604408,0.036237109361687996
2025-01-08 10:19:01.685575936,-0.14845854,0.03675872738747138
2025-01-08 10:19:01.695554048,-0.13276291,0.03724360402377309
2025-01-08 10:19:01.705616896,-0.13423562,0.03769125047183376
2025-01-08 10:19:01.715642880,-0.11981112,0.03810121005098403
2025-01-08 10:19:01.725587968,-0.0811708,0.03847305863298427
2025-01-08 10:19:01.735574016,-0.03193206,0.03880640504869022
2025-01-08 10:19:01.745675008,-0.01061296,0.03910089146667792
2025-01-08 10:19:01.755601920,-0.00462794,0.0393561937434848
2025-01-08 10:19:01.765628928,0.02115136,0.03957202174514649
2025-01-08 10:19:01.775697920,0.05792999,0.03974811963973501
2025-01-08 10:19:01.785672960,0.08853436,0.03988426616062698
2025-01-08 10:19:01.795703040,0.11464375,0.03998027484025613
2025-01-08 10:19:01.805676032,0.13862467,0.04003599421413007
2025-01-08 10:19:01.815782912,0.16267008,0.0400513079949146
2025-01-08 10:19:01.825666816,0.1869778,0.04002613521641612
2025-01-08 10:19:01.835686912,0.2413128,0.03996043034731755
2025-01-08 10:19:01.845700096,0.30753815,0.039854183374548546
2025-01-08 10:19:01.855643904,0.3687737,0.039707419856196656
2025-01-08 10:19:01.866149888,0.42322516,0.03952020094389363
2025-01-08 10:19:01.875798016,0.43633103,0.03929262337463324
2025-01-08 10:19:01.885756928,0.44466275,0.03902481943200769
2025-01-08 10:19:01.895719936,0.49311072,0.03871695687687199
2025-01-08 10:19:01.905731840,0.56815851,0.03836923884747339
2025-01-08 10:19:01.916024064,0.63014108,0.03798190372910897
2025-01-08 10:19:01.925741824,0.68849266,0.03755522499340022
2025-01-08 10:19:01.935753984,0.70834827,0.03708951100729787
2025-01-08 10:19:01.945790976,0.6552996,0.03658510481196024
2025-01-08 10:19:01.955991040,0.59600621,0.03604238387166815
2025-01-08 10:19:01.965902080,0.57931113,0.035461759792970136
2025-01-08 10:19:01.976401920,0.57913017,0.034843678014274584
2025-01-08 10:19:01.985884928,0.57303315,0.034188617466130944
2025-01-08 10:19:01.995858944,0.54917109,0.033497090202467605
2025-01-08 10:19:02.005879040,0.50623232,0.032769641003079004
2025-01-08 10:19:02.015880192,0.46282423,0.03200684694767783
2025-01-08 10:19:02.025912064,0.39695621,0.031209316961854635
2025-01-08 10:19:02.035901184,0.33903092,0.03037769133530964
2025-01-08 10:19:02.045891072,0.29327011,0.029512641212745463
2025-01-08 10:19:02.055947008,0.21158618,0.0286148680578329
2025-01-08 10:19:02.065862912,0.08038861,0.027685103090686308
2025-01-08 10:19:02.076468992,-0.09598082,0.02672410669930616
2025-01-08 10:19:02.085923840,-0.21728987,0.02573266782546851
2025-01-08 10:19:02.095928832,-0.2381869,0.024711603325565483
2025-01-08 10:19:02.105907968,-0.16962194,0.02366175730691958
2025-01-08 10:19:02.115969024,-0.02922499,0.022584000440117564
2025-01-08 10:19:02.125873152,0.1542992,0.021479229247929242
2025-01-08 10:19:02.135902976,0.31483555,0.02034836537139752
2025-01-08 10:19:02.145958912,0.39405721,0.019192354813704886
2025-01-08 10:19:02.155975936,0.40469939,0.01801216716244216
2025-01-08 10:19:02.166029056,0.35447007,0.016808794790921327
2025-01-08 10:19:02.176001024,0.22043383,0.015583252039195286
2025-01-08 10:19:02.186167040,0.03768438,0.014336574375463736
2025-01-08 10:19:02.195985152,-0.15078604,0.01306981753856043
2025-01-08 10:19:02.206129152,-0.34297705,0.011784056662235268
2025-01-08 10:19:02.215902976,-0.46271324,0.010480385381959069
2025-01-08 10:19:02.225976064,-0.41942251,0.009159914924995221
2025-01-08 10:19:02.236043008,-0.27105975,0.007823773184495767
2025-01-08 10:19:02.248507904,-0.12697089,0.006473103778394359
2025-01-08 10:19:02.256047104,-0.03096253,0.005109065093881975
2025-01-08 10:19:02.266084864,0.04858351,0.0037328293182627894
2025-01-08 10:19:02.276029184,0.16424692,0.0023455814570010384
2025-01-08 10:19:02.286001920,0.29923898,0.0009485183397795749
2025-01-08 10:19:02.296044032,0.41487545,-0.00045715238459697856
2025-01-08 10:19:02.306093824,0.47110105,-0.0018702132636136625
2025-01-08 10:19:02.316101120,0.48067415,-0.003289438065918806
2025-01-08 10:19:02.326176768,0.49013662,-0.004713592814801021
2025-01-08 10:19:02.336093952,0.51807678,-0.006141436829402293
2025-01-08 10:19:02.346131200,0.55560243,-0.007571723772791304
2025-01-08 10:19:02.356122880,0.56693494,-0.00900320270601871
2025-01-08 10:19:02.366096128,0.56042951,-0.010434619147265
2025-01-08 10:19:02.376082944,0.53304636,-0.011864716135192735
2025-01-08 10:19:02.386473984,0.50286382,-0.01329223529560543
2025-01-08 10:19:02.396174848,0.50022376,-0.014715917910516197
2025-01-08 10:19:02.406134016,0.54891759,-0.016134505988724606
2025-01-08 10:19:02.416199936,0.59533483,-0.017546743336997923
2025-01-08 10:19:02.426196224,0.61284018,-0.01895137663095486
2025-01-08 10:19:02.436328960,0.59432322,-0.020347156484744774
2025-01-08 10:19:02.446230016,0.55517763,-0.021732838518620946
2025-01-08 10:19:02.456244992,0.50405318,-0.023107184423504946
2025-01-08 10:19:02.466221056,0.44505137,-0.024468963021639378
2025-01-08 10:19:02.476190208,0.35245138,-0.025816951322435274
2025-01-08 10:19:02.486358784,0.26453316,-0.027149935572615597
2025-01-08 10:19:02.496504064,0.24864697,-0.028466712299768406
2025-01-08 10:19:02.506336000,0.30659813,-0.029766089348422113
2025-01-08 10:19:02.516408832,0.38562715,-0.031046886907765314
2025-01-08 10:19:02.526381056,0.43028098,-0.03230793853013813
2025-01-08 10:19:02.536408832,0.43368244,-0.033548092139428276
2025-01-08 10:19:02.546364160,0.43201494,-0.034766211028517686
2025-01-08 10:19:02.556283904,0.44637865,-0.0359611748449267
2025-01-08 10:19:02.566336000,0.44449687,-0.03713188056381969
2025-01-08 10:19:02.576241920,0.36406475,-0.03827724344754215
2025-01-08 10:19:02.586263808,0.20934778,-0.039396197990869956
2025-01-08 10:19:02.596401920,0.08617187,-0.040487698851164725
2025-01-08 10:19:02.606331136,-0.00404549,-0.04155072176264101
2025-01-08 10:19:02.616413184,-0.01591831,-0.04258426443396249
2025-01-08 10:19:02.626238976,0.02332675,-0.043587347428399946
2025-01-08 10:19:02.636332032,0.03377557,-0.0445590150257965
2025-01-08 10:19:02.646363904,0.01553345,-0.045498336065600505
2025-01-08 10:19:02.656389888,0.01978737,-0.046404404770243934
2025-01-08 10:19:02.666407168,0.03919762,-0.04727634154815598
2025-01-08 10:19:02.676439040,0.04979336,-0.04811329377572379
2025-01-08 10:19:02.686407168,0.06775272,-0.04891443655752407
2025-01-08 10:19:02.696471808,0.05561393,-0.04967897346417138
2025-01-08 10:19:02.706434048,-0.01360869,-0.05040613724714458
2025-01-08 10:19:02.716436992,-0.09726828,-0.051095190529972634
2025-01-08 10:19:02.726497024,-0.11812866,-0.05174542647518242
2025-01-08 10:19:02.736464128,-0.13885713,-0.05235616942642616
2025-01-08 10:19:02.746476032,-0.18789387,-0.05292677552523347
2025-01-08 10:19:02.756480000,-0.22301131,-0.05345663330184631
2025-01-08 10:19:02.766488064,-0.22992808,-0.0539451642396239
2025-01-08 10:19:02.776434944,-0.20010376,-0.05439182331252058
2025-01-08 10:19:02.786468864,-0.16642481,-0.05479609949516542
2025-01-08 10:19:02.797039872,-0.15823132,-0.05515751624509324
2025-01-08 10:19:02.806508032,-0.18192416,-0.055475631956701195
2025-01-08 10:19:02.816478976,-0.22210205,-0.05575004038652645
2025-01-08 10:19:02.826632960,-0.26245993,-0.05598037104946692
2025-01-08 10:19:02.836730112,-0.2690714,-0.056166289585587975
2025-01-08 10:19:02.846596864,-0.26603901,-0.05630749809718571
2025-01-08 10:19:02.856460032,-0.25655621,-0.05640373545579919
2025-01-08 10:19:02.866502912,-0.22718257,-0.05645477757889055
2025-01-08 10:19:02.876547072,-0.21047479,-0.05646043767593714
2025-01-08 10:19:02.886514944,-0.21363229,-0.05642056646370449
2025-01-08 10:19:02.896612864,-0.21482408,-0.056335052350494116
2025-01-08 10:19:02.906585856,-0.24925941,-0.05620382158918845
2025-01-08 10:19:02.916621056,-0.25896585,-0.05602683839893764
2025-01-08 10:19:02.926571008,-0.25571954,-0.055804105055361354
2025-01-08 10:19:02.936847872,-0.29419923,-0.05553566194916509
2025-01-08 10:19:02.946520064,-0.39990175,-0.05522158761309443
2025-01-08 10:19:02.956520960,-0.5303213,-0.05486199871718056
2025-01-08 10:19:02.966528000,-0.60744786,-0.05445705003225281
2025-01-08 10:19:02.976499200,-0.64833033,-0.0540069343617241
2025-01-08 10:19:02.986511104,-0.69350713,-0.05351188244167968
2025-01-08 10:19:02.996644864,-0.78135562,-0.052972162809324826
2025-01-08 10:19:03.006525952,-0.8384037,-0.052388081639877376
2025-01-08 10:19:03.016540160,-0.85121357,-0.051759982552012855
2025-01-08 10:19:03.026489088,-0.84745312,-0.051088246381999186
2025-01-08 10:19:03.036470016,-0.81610978,-0.050373290926683724
2025-01-08 10:19:03.046571008,-0.75987071,-0.04961557065551901
2025-01-08 10:19:03.056616960,-0.69916105,-0.04881557639184352
2025-01-08 10:19:03.066675968,-0.70264393,-0.04797383496365573
2025-01-08 10:19:03.076549888,-0.74249703,-0.047090908824146877
2025-01-08 10:19:03.086643968,-0.76875895,-0.04616739564228409
2025-01-08 10:19:03.096613888,-0.79849917,-0.045203927863757515
2025-01-08 10:19:03.106653952,-0.82438552,-0.04420117224263399
2025-01-08 10:19:03.116730880,-0.82889199,-0.04315982934408081
2025-01-08 10:19:03.126752000,-0.79772502,-0.04208063301854891
2025-01-08 10:19:03.136771840,-0.75191838,-0.0409643498478288
2025-01-08 10:19:03.146761984,-0.72381246,-0.03981177856341621
2025-01-08 10:19:03.156771072,-0.66722161,-0.038623749437645974
2025-01-08 10:19:03.166616832,-0.57052755,-0.03740112364807858
2025-01-08 10:19:03.176732160,-0.4586857,-0.03614479261564293
2025-01-08 10:19:03.186775808,-0.35106575,-0.034855677317063356
2025-01-08 10:19:03.196759040,-0.27884084,-0.03353472757211997
2025-01-08 10:19:03.206739968,-0.2215876,-0.03218292130631016
2025-01-08 10:19:03.216739840,-0.14883703,-0.03080126378950498
2025-01-08 10:19:03.226793984,-0.0851559,-0.02939078685120826
2025-01-08 10:19:03.236825088,-0.05293208,-0.027952548073050493
2025-01-08 10:19:03.246836992,-0.05276936,-0.026487629959166883
2025-01-08 10:19:03.256807168,-0.04672217,-0.024997139085126897
2025-01-08 10:19:03.266854912,-0.02996457,-0.023482205226103187
2025-01-08 10:19:03.276873984,-0.04084188,-0.021943980464982332
2025-01-08 10:19:03.286843136,-0.02903301,-0.020383638281138403
2025-01-08 10:19:03.296849920,0.00558537,-0.018802372620607723
2025-01-08 10:19:03.306912000,0.01875651,-0.017201396948415527
2025-01-08 10:19:03.316834816,0.02691317,-0.01558194328382449
2025-01-08 10:19:03.326914048,0.03100717,-0.01394526121928647
2025-01-08 10:19:03.336886784,0.06023824,-0.012292616923894106
2025-01-08 10:19:03.346950144,0.05123103,-0.010625292132141065
2025-01-08 10:19:03.356937984,0.00403959,-0.008944583118814511
2025-01-08 10:19:03.366905088,-0.03401148,-0.007251799660851429
2025-01-08 10:19:03.376915968,-0.03852308,-0.005548263987005668
2025-01-08 10:19:03.386917120,-0.02466047,-0.0038353097161796168
2025-01-08 10:19:03.396910080,-0.06258476,-0.0021142807852866344
2025-01-08 10:19:03.406982912,-0.13409746,-0.00038653036751777896
2025-01-08 10:19:03.417022976,-0.18085814,0.0013465802181048066
2025-01-08 10:19:03.426896128,-0.20717466,0.0030836826049971894
2025-01-08 10:19:03.437069824,-0.19462955,0.004823402484209754
2025-01-08 10:19:03.447166976,-0.12766242,0.006564360715646321
2025-01-08 10:19:03.457135872,-0.02360511,0.008305174444399134
2025-01-08 10:19:03.468252928,0.0232659,0.010044458221285722
2025-01-08 10:19:03.477252096,0.00566667,0.01178082512667132
2025-01-08 10:19:03.487148032,-0.00817502,0.01351288789665848
2025-01-08 10:19:03.497186048,-0.02125937,0.015239260050718597
2025-01-08 10:19:03.507104000,-0.05533653,0.016958557019846283
2025-01-08 10:19:03.517335808,-0.07676023,0.018669397274307525
2025-01-08 10:19:03.527152128,-0.08505833,0.020370403450060987
2025-01-08 10:19:03.537102080,-0.12086368,0.02206020347292616
2025-01-08 10:19:03.546951936,-0.16841018,0.023737431679577915
2025-01-08 10:19:03.557029120,-0.20218158,0.025400729934446656
2025-01-08 10:19:03.567089152,-0.20182973,0.02704874874160746
2025-01-08 10:19:03.577017088,-0.15229058,0.028680148350745175
2025-01-08 10:19:03.587399936,-0.12450087,0.030293599856287073
2025-01-08 10:19:03.597321984,-0.1179679,0.03188778628879902
2025-01-08 10:19:03.607165184,-0.10241193,0.03346140369774994
2025-01-08 10:19:03.617257984,-0.06847686,0.03501316222475094
2025-01-08 10:19:03.627283200,-0.04000133,0.03654178716639037
2025-01-08 10:19:03.637259008,-0.03531748,0.03804602002578556
2025-01-08 10:19:03.647149056,-0.04461819,0.039524619551989965
2025-01-08 10:19:03.657123072,-0.04106176,0.04097636276639688
2025-01-08 10:19:03.667191040,-0.01666617,0.04240004597529446
2025-01-08 10:19:03.677145856,-0.00430465,0.04379448576773941
2025-01-08 10:19:03.687201024,-0.00565147,0.045158519997924515
2025-01-08 10:19:03.697248000,0.00991386,0.04649100875123064
2025-01-08 10:19:03.707206912,0.05167478,0.04779083529316707
2025-01-08 10:19:03.717216000,0.08438319,0.049056907000414526
2025-01-08 10:19:03.727219968,0.10243392,0.050288156273205105
2025-01-08 10:19:03.737228032,0.13493478,0.05148354142828251
2025-01-08 10:19:03.747164928,0.18571991,0.05264204757170654
2025-01-08 10:19:03.757250048,0.23735934,0.053762687450779015
2025-01-08 10:19:03.767230976,0.29731828,0.05484450228438667
2025-01-08 10:19:03.777227008,0.36875069,0.05588656257107379
2025-01-08 10:19:03.787219968,0.43057889,0.05688796887417481
2025-01-08 10:19:03.797286144,0.47401816,0.05784785258335685
2025-01-08 10:19:03.807301120,0.49241191,0.05876537665193984
2025-01-08 10:19:03.817376000,0.50881171,0.05963973630938319
2025-01-08 10:19:03.827308800,0.53476101,0.06047015974834691
2025-01-08 10:19:03.837764096,0.55594856,0.06125590878575567
2025-01-08 10:19:03.847290112,0.57371211,0.06199627949731715
2025-01-08 10:19:03.857309184,0.59069169,0.06269060282496439
2025-01-08 10:19:03.867355136,0.59327447,0.06333824515671789
2025-01-08 10:19:03.877309952,0.57714903,0.06393860887848234
2025-01-08 10:19:03.887384832,0.54106301,0.06449113289731674
2025-01-08 10:19:03.897376000,0.49864775,0.06499529313574116
2025-01-08 10:19:03.907334144,0.47402632,0.06545060299666446
2025-01-08 10:19:03.917435904,0.46275949,0.06585661379854414
2025-01-08 10:19:03.927400960,0.44100773,0.06621291518041053
2025-01-08 10:19:03.937319168,0.39548612,0.06651913547641462
2025-01-08 10:19:03.947384064,0.34648317,0.06677494205958344
2025-01-08 10:19:03.957388032,0.30465811,0.06698004165448881
2025-01-08 10:19:03.967401984,0.26902241,0.06713418061856649
2025-01-08 10:19:03.977453056,0.19744444,0.06723714519184121
2025-01-08 10:19:03.987433984,0.09519845,0.06728876171484487
2025-01-08 10:19:03.997438976,0.02428722,0.0672888968145384
2025-01-08 10:19:04.007299072,0.0581485,0.06723745755807209
2025-01-08 10:19:04.017380096,0.17135769,0.0671343915742499
2025-01-08 10:19:04.027396864,0.27153951,0.0669796871425853
2025-01-08 10:19:04.037348864,0.35620952,0.06677337324986446
2025-01-08 10:19:04.047383040,0.44534302,0.06651551961415963
2025-01-08 10:19:04.057358080,0.47857893,0.06620623667626001
2025-01-08 10:19:04.067378944,0.3924467,0.06584567555851682
2025-01-08 10:19:04.078900224,0.21102726,0.06543402799112163
2025-01-08 10:19:04.087485184,0.00513721,0.06497152620586932
2025-01-08 10:19:04.097493760,-0.15611768,0.06445844279747692
2025-01-08 10:19:04.107476992,-0.30472577,0.06389509055256129
2025-01-08 10:19:04.117552128,-0.41217422,0.06328182224640232
2025-01-08 10:19:04.127502080,-0.43776184,0.06261903040764448
2025-01-08 10:19:04.137445888,-0.39648622,0.061907147051117016
2025-01-08 10:19:04.147593984,-0.31522453,0.06114664337897722
2025-01-08 10:19:04.157548800,-0.20730442,0.06033802945040892
2025-01-08 10:19:04.167550208,-0.09109664,0.05948185382013176
2025-01-08 10:19:04.177553920,0.00481784,0.058578703146003705
2025-01-08 10:19:04.187555072,0.10873884,0.05762920176602404
2025-01-08 10:19:04.197681920,0.23889339,0.05663401124506827
2025-01-08 10:19:04.207553024,0.38790405,0.05559382989171131
2025-01-08 10:19:04.217570048,0.49767452,0.05450939224552064
2025-01-08 10:19:04.227482112,0.54371351,0.0533814685352221
2025-01-08 10:19:04.238643968,0.55408776,0.05221086410816895
2025-01-08 10:19:04.247721984,0.54060113,0.05099841883156325
2025-01-08 10:19:04.257594112,0.48154104,0.049745006465906315
2025-01-08 10:19:04.267628032,0.38501316,0.04845153401117282
2025-01-08 10:19:04.277594112,0.29813886,0.04711894102622888
2025-01-08 10:19:04.287753216,0.27284509,0.04574819892203449
2025-01-08 10:19:04.297716992,0.29300153,0.04434031022919123
2025-01-08 10:19:04.307576064,0.32112771,0.0428963078404185
2025-01-08 10:19:04.317707008,0.32344413,0.04141725422856096
2025-01-08 10:19:04.327673856,0.30243081,0.03990424064074807
2025-01-08 10:19:04.337696000,0.3091234,0.03835838626935077
2025-01-08 10:19:04.347714816,0.33163768,0.03678083740039078
2025-01-08 10:19:04.357692928,0.34387898,0.03517276654008584
2025-01-08 10:19:04.368526080,0.36295575,0.03353537152022375
2025-01-08 10:19:04.377679104,0.4341377,0.03186987458307889
2025-01-08 10:19:04.387756032,0.5271104,0.030177521446602316
2025-01-08 10:19:04.397735168,0.5732199,0.0284595803506285
2025-01-08 10:19:04.407800832,0.52151358,0.026717341084860707
2025-01-08 10:19:04.417969920,0.43122941,0.024952113999409487
2025-01-08 10:19:04.427933952,0.3946721,0.023165228998673754
2025-01-08 10:19:04.437944832,0.41783422,0.0213580345193663
2025-01-08 10:19:04.447876864,0.43150336,0.019531896493498905
2025-01-08 10:19:04.457901056,0.40267527,0.017688197297153988
2025-01-08 10:19:04.467947008,0.3779797,0.015828334685881275
2025-01-08 10:19:04.477894912,0.37998575,0.013953720717567324
2025-01-08 10:19:04.487883008,0.41337436,0.012065780663637685
2025-01-08 10:19:04.497925888,0.47127944,0.010165951909458936
2025-01-08 10:19:04.507895040,0.50104606,0.00825568284481671
2025-01-08 10:19:04.517680896,0.49647748,0.006336431745354672
2025-01-08 10:19:04.527929088,0.46055692,0.004409665645864307
2025-01-08 10:19:04.538397952,0.35352188,0.0024768592063240343
2025-01-08 10:19:04.547794944,0.19813955,0.0005394935715899909
2025-01-08 10:19:04.557894912,0.06107509,-0.0014009447743537431
2025-01-08 10:19:04.567919104,-0.04586512,-0.003342965158673549
2025-01-08 10:19:04.577990144,-0.09210449,-0.0052850738735774035
2025-01-08 10:19:04.587995904,-0.05968106,-0.007225775332902932
2025-01-08 10:19:04.598027008,-0.05751455,-0.009163573230480103
2025-01-08 10:19:04.607912960,-0.09983248,-0.011096971699350353
2025-01-08 10:19:04.617939968,-0.10855663,-0.013024476470919621
2025-01-08 10:19:04.627915008,-0.09591019,-0.014944596033125113
2025-01-08 10:19:04.637932032,-0.07275862,-0.016855842786696888
2025-01-08 10:19:04.647944960,-0.02919483,-0.01875673419859593
2025-01-08 10:19:04.657905152,0.00382608,-0.020645793951714574
2025-01-08 10:19:04.667992064,0.0052833,-0.022521553089927357
2025-01-08 10:19:04.678044928,-0.03714329,-0.02438255115758579
2025-01-08 10:19:04.688033024,-0.08469182,-0.026227337332554074
2025-01-08 10:19:04.698106880,-0.08010703,-0.028054471551888765
2025-01-08 10:19:04.710710016,-0.0553543,-0.029862525629273117
2025-01-08 10:19:04.717946880,-0.05808204,-0.03165008436332207
2025-01-08 10:19:04.727969024,-0.07681936,-0.033415746635881975
2025-01-08 10:19:04.738174976,-0.06512189,-0.03515812649945917
2025-01-08 10:19:04.748009984,-0.03090382,-0.0368758542529186
2025-01-08 10:19:04.758035968,-0.00986433,-0.038567577504605294
2025-01-08 10:19:04.768066048,1.097e-05,-0.04023196222205073
2025-01-08 10:19:04.778057984,-0.02283877,-0.04186769376743867
2025-01-08 10:19:04.788126976,-0.07632685,-0.043473477918015535
2025-01-08 10:19:04.798098944,-0.13307327,-0.04504804187064492
2025-01-08 10:19:04.808643072,-0.21534145,-0.04659013522971631
2025-01-08 10:19:04.818327808,-0.32816428,-0.04809853097763494
2025-01-08 10:19:04.828162048,-0.42851657,-0.049572026427131925
2025-01-08 10:19:04.838232064,-0.44444454,-0.051009444154650065
2025-01-08 10:19:04.848116992,-0.39159054,-0.05240963291407592
2025-01-08 10:19:04.858195968,-0.37163234,-0.05377146853010472
2025-01-08 10:19:04.868195072,-0.3472724,-0.055093854770542884
2025-01-08 10:19:04.878246912,-0.28531659,-0.05637572419686889
2025-01-08 10:19:04.888143104,-0.23539484,-0.05761603899239039
2025-01-08 10:19:04.898107904,-0.24976927,-0.05881379176735785
2025-01-08 10:19:04.908178176,-0.26138717,-0.05996800634040812
2025-01-08 10:19:04.918248960,-0.28188711,-0.06107773849573631
2025-01-08 10:19:04.928154112,-0.36881721,-0.06214207671541014
2025-01-08 10:19:04.938174976,-0.45194072,-0.06316014288626472
2025-01-08 10:19:04.948091136,-0.50119126,-0.06413109298083246
2025-01-08 10:19:04.958256128,-0.59380245,-0.06505411771178919
2025-01-08 10:19:04.968243968,-0.70785737,-0.0659284431594143
2025-01-08 10:19:04.978202112,-0.77542269,-0.06675333137158737
2025-01-08 10:19:04.988328960,-0.79332107,-0.06752808093586693
2025-01-08 10:19:04.998243072,-0.76369977,-0.06825202752321684
2025-01-08 10:19:05.008209920,-0.6788528,-0.06892454440297097
2025-01-08 10:19:05.018289920,-0.60020077,-0.06954504292865127
2025-01-08 10:19:05.028235008,-0.61648124,-0.0701129729942744
2025-01-08 10:19:05.038351104,-0.67428815,-0.07062782346080917
2025-01-08 10:19:05.048310016,-0.72322035,-0.0710891225524715
2025-01-08 10:19:05.058322944,-0.76826125,-0.07149643822256478
2025-01-08 10:19:05.068311808,-0.7705633,-0.07184937848860155
2025-01-08 10:19:05.078267136,-0.7715444,-0.07214759173646586
2025-01-08 10:19:05.088299008,-0.78471464,-0.07239076699340068
2025-01-08 10:19:05.098537984,-0.73299271,-0.0725786341696302
2025-01-08 10:19:05.108323072,-0.64598793,-0.07271096426845179
2025-01-08 10:19:05.118380032,-0.57259077,-0.07278756956465789
2025-01-08 10:19:05.128364032,-0.50468051,-0.07280830375117489
2025-01-08 10:19:05.138355968,-0.41301101,-0.07277306205382889
2025-01-08 10:19:05.148387840,-0.31846845,-0.07268178131417619
2025-01-08 10:19:05.158390016,-0.31768847,-0.07253444004036176
2025-01-08 10:19:05.168411136,-0.33659309,-0.07233105842599293
2025-01-08 10:19:05.178373120,-0.27656323,-0.0720716983370431
2025-01-08 10:19:05.188328960,-0.18393868,-0.0717564632668247
2025-01-08 10:19:05.198483968,-0.14548171,-0.07138549825909653
2025-01-08 10:19:05.208420096,-0.15128237,-0.07095898979939595
2025-01-08 10:19:05.218478848,-0.16324174,-0.07047716567471159
2025-01-08 10:19:05.228440064,-0.15150255,-0.0699402948016377
2025-01-08 10:19:05.238413056,-0.0988884,-0.06934868702317662
2025-01-08 10:19:05.248428032,-0.07482636,-0.06870269287437945
2025-01-08 10:19:05.258450944,-0.12293696,-0.06800270331704117
2025-01-08 10:19:05.268493824,-0.15290707,-0.06724914944369036
2025-01-08 10:19:05.278451968,-0.18294346,-0.06644250215113828
2025-01-08 10:19:05.288465920,-0.18129289,-0.06558327178387424
2025-01-08 10:19:05.298647040,-0.11277372,-0.06467200774762177
2025-01-08 10:19:05.308486912,-0.04655558,-0.06370929809338954
2025-01-08 10:19:05.318509056,-0.03892791,-0.06269576907237663
2025-01-08 10:19:05.329189120,-0.0724628,-0.06163208466211338
2025-01-08 10:19:05.340129024,-0.08794081,-0.06051894606424288
2025-01-08 10:19:05.348464128,-0.05699515,-0.05935709117436898
2025-01-08 10:19:05.358598912,-0.01874822,-0.058147294024418233
2025-01-08 10:19:05.368743936,0.00234145,-0.056890364197987216
2025-01-08 10:19:05.378796032,-0.02112585,-0.05558714621916287
2025-01-08 10:19:05.388658944,-0.13546348,-0.05423851891533067
2025-01-08 10:19:05.398756096,-0.21500856,-0.0528453947544973
2025-01-08 10:19:05.408711936,-0.19178718,-0.051408719157682664
2025-01-08 10:19:05.418790144,-0.16222942,-0.04992946978694831
2025-01-08 10:19:05.428736000,-0.12409562,-0.048408655809651834
2025-01-08 10:19:05.438672128,-0.10347039,-0.046847317139534564
2025-01-08 10:19:05.448909056,-0.12570995,-0.04524652365526513
2025-01-08 10:19:05.458530048,-0.12157238,-0.043607374397082295
2025-01-08 10:19:05.468528128,-0.07157874,-0.041930996742193416
2025-01-08 10:19:05.478580992,-0.02969718,-0.04021854555960363
2025-01-08 10:19:05.488642048,-0.04949152,-0.03847120234506397
2025-01-08 10:19:05.498670080,-0.09468454,-0.03669017433684357
2025-01-08 10:19:05.508675072,-0.10777003,-0.03487669361304352
2025-01-08 10:19:05.518765056,-0.08869374,-0.0330320161711854
2025-01-08 10:19:05.528636928,-0.08831066,-0.031157420990817884
2025-01-08 10:19:05.538664192,-0.0792523,-0.02925420907989996
2025-01-08 10:19:05.548664064,-0.05676252,-0.027323702505730164
2025-01-08 10:19:05.558654976,-0.05462945,-0.02536724341120039
2025-01-08 10:19:05.568722944,-0.05470049,-0.023386193017165758
2025-01-08 10:19:05.578699008,-0.04840136,-0.021381930611731378
2025-01-08 10:19:05.588715008,-0.04390776,-0.019355852527264586
2025-01-08 10:19:05.598725120,-0.06239784,-0.0173093711059504
2025-01-08 10:19:05.608751104,-0.08174843,-0.015243913654716022
2025-01-08 10:19:05.618851072,-0.05899632,-0.013160921390357247
2025-01-08 10:19:05.628732928,-0.03034341,-0.011061848375705239
2025-01-08 10:19:05.638780160,-0.04105508,-0.008948160447677411
2025-01-08 10:19:05.648782848,-0.04802859,-0.006821334138064255
2025-01-08 10:19:05.658819072,-0.05708194,-0.004682855587903076
2025-01-08 10:19:05.668826112,-0.0613783,-0.0025342194562977117
2025-01-08 10:19:05.678813952,-0.01631397,-0.00037692782454353473
2025-01-08 10:19:05.688922880,0.03704703,0.0017875109035798411
2025-01-08 10:19:05.698798848,0.05867326,0.003957583104484823
2025-01-08 10:19:05.708880896,0.08072245,0.006131771039556274
2025-01-08 10:19:05.718891008,0.12636322,0.008308553961172489
2025-01-08 10:19:05.728806912,0.16505194,0.010486409219103229
2025-01-08 10:19:05.738861056,0.19384998,0.012663813366421615
2025-01-08 10:19:05.748861184,0.2456758,0.014839243264071713
2025-01-08 10:19:05.758866944,0.29745203,0.017011177183233177
2025-01-08 10:19:05.768916992,0.34251738,0.019178095904630474
2025-01-08 10:19:05.778892032,0.39199781,0.021338483813936236
2025-01-08 10:19:05.788850944,0.41958773,0.023490829992426018
2025-01-08 10:19:05.798888960,0.41962832,0.025633629302043746
2025-01-08 10:19:05.809020928,0.43936229,0.027765383464047118
2025-01-08 10:19:05.818942976,0.48311234,0.02988460213040596
2025-01-08 10:19:05.828934912,0.49582815,0.03198980394713711
2025-01-08 10:19:05.838906880,0.49362296,0.034079517608764966
2025-01-08 10:19:05.848922880,0.48185635,0.03615228290310709
2025-01-08 10:19:05.858932992,0.4951244,0.03820665174559548
2025-01-08 10:19:05.868969984,0.527143,0.040241189202349814
2025-01-08 10:19:05.878928896,0.54620928,0.04225447450123538
2025-01-08 10:19:05.888948992,0.54497182,0.04424510203014509
2025-01-08 10:19:05.898944000,0.55401617,0.04621168232175951
2025-01-08 10:19:05.909166080,0.5640707,0.04815284302405205
2025-01-08 10:19:05.919735808,0.54448539,0.05006722985581695
2025-01-08 10:19:05.928998912,0.51654738,0.051953507546514
2025-01-08 10:19:05.939089920,0.52043301,0.053810360759737386
2025-01-08 10:19:05.950923008,0.50216222,0.055636494999630595
2025-01-08 10:19:05.958908160,0.41113484,0.05743063749958533
2025-01-08 10:19:05.969005056,0.31376016,0.05919153809257755
2025-01-08 10:19:05.978884096,0.26399201,0.06091797006251118
2025-01-08 10:19:05.989052160,0.21392429,0.06260873097595612
2025-01-08 10:19:05.999030016,0.17635167,0.06426264349368455
2025-01-08 10:19:06.009057024,0.15314394,0.06587855616142778
2025-01-08 10:19:06.019083008,0.11995196,0.06745534417929436
2025-01-08 10:19:06.029103872,0.06965083,0.0689919101493076
2025-01-08 10:19:06.039099904,-0.001068,0.0704871848005414
2025-01-08 10:19:06.049093120,-0.03984857,0.07194012769135141
2025-01-08 10:19:06.059070976,-0.05483896,0.07334972788821915
2025-01-08 10:19:06.069058816,-0.03211385,0.0747150046207467
2025-01-08 10:19:06.079241984,0.0218724,0.07603500791236016
2025-01-08 10:19:06.091567104,0.03424716,0.07730881918630042
2025-01-08 10:19:06.099340800,0.02094567,0.07853555184650192
2025-01-08 10:19:06.109234944,0.00918144,0.07971435183298074
2025-01-08 10:19:06.119187200,-0.00384229,0.08084439815137553
2025-01-08 10:19:06.129238016,-0.03498304,0.08192490337630574
2025-01-08 10:19:06.139145984,-0.06005049,0.08295511412823545
2025-01-08 10:19:06.149174016,-0.05938143,0.08393431152355209
2025-01-08 10:19:06.159284992,-0.05346757,0.08486181159759236
2025-01-08 10:19:06.169268992,-0.03904688,0.08573696570037019
2025-01-08 10:19:06.179564032,-0.02987701,0.08655916086478542
2025-01-08 10:19:06.189153792,-0.04151267,0.08732782014711288
2025-01-08 10:19:06.199158016,-0.06038976,0.08804240293959692
2025-01-08 10:19:06.209177856,-0.07502669,0.0887024052549982
2025-01-08 10:19:06.220594944,-0.05082935,0.08930735998296278
2025-01-08 10:19:06.229340160,-0.00053233,0.08985683711810813
2025-01-08 10:19:06.239168768,0.0489518,0.09035044395974239
2025-01-08 10:19:06.249231104,0.12240613,0.09078782528315804
2025-01-08 10:19:06.259260928,0.20950329,0.09116866348246262
2025-01-08 10:19:06.269242880,0.27459139,0.0914926786849351
2025-01-08 10:19:06.279265024,0.33100408,0.09175962883691725
2025-01-08 10:19:06.289291008,0.38811171,0.09196930976127354
2025-01-08 10:19:06.299320832,0.42399138,0.0921215551864763
2025-01-08 10:19:06.309257984,0.43749088,0.09221623674739671
2025-01-08 10:19:06.319482112,0.43433046,0.09225326395790233
2025-01-08 10:19:06.329474816,0.41731012,0.0922325841553873
2025-01-08 10:19:06.339482112,0.38934213,0.09215418241738348
2025-01-08 10:19:06.349477120,0.37356883,0.09201808145042129
2025-01-08 10:19:06.359493888,0.35071802,0.09182434145133322
2025-01-08 10:19:06.369476096,0.31750095,0.09157305994121427
2025-01-08 10:19:06.379430912,0.28330493,0.09126437157227452
2025-01-08 10:19:06.389435904,0.26125103,0.09089844790784184
2025-01-08 10:19:06.399406848,0.25985736,0.09047549717579172
2025-01-08 10:19:06.409444096,0.29242676,0.08999576399570583
2025-01-08 10:19:06.419412992,0.37414187,0.0894595290800763
