TIMESTAMP,ACCX,ACCX_filtered
2025-01-08 10:07:57.858537984,4.59753656,1.1135905089702627
2025-01-08 10:07:57.885142016,5.13983917,1.1063707947311812
2025-01-08 10:07:57.885165824,5.6885891,1.0987286349381586
2025-01-08 10:07:57.895682048,5.98646259,1.0906719112951608
2025-01-08 10:07:57.897880064,5.90563011,1.0822087627752077
2025-01-08 10:07:57.909029888,5.50956774,1.0733475783326645
2025-01-08 10:07:57.918467072,5.12780762,1.0640969894410626
2025-01-08 10:07:58.010447104,4.81714535,1.0544658624629237
2025-01-08 10:07:58.037640192,4.44081306,1.0444632908581921
2025-01-08 10:07:58.037654016,3.89738345,1.0340985872379973
2025-01-08 10:07:58.037659904,3.28402472,1.0233812752705778
2025-01-08 10:07:58.037668096,2.79594302,1.0123210814463155
2025-01-08 10:07:58.037673984,2.4399755,1.000927926708919
2025-01-08 10:07:58.037679872,2.18540263,0.9892119179599003
2025-01-08 10:07:58.037693952,2.04662991,0.9771833394435718
2025-01-08 10:07:58.037700864,1.9239099,0.9648526440198814
2025-01-08 10:07:58.037705984,1.7258687,0.9522304443324703
2025-01-08 10:07:58.037712128,1.54490089,0.939327503879421
2025-01-08 10:07:58.038376192,1.45672369,0.9261547279942174
2025-01-08 10:07:58.059278080,1.42748976,0.9127231547445044
2025-01-08 10:07:58.059296000,1.42419755,0.8990439457562793
2025-01-08 10:07:58.085867776,1.41441154,0.8851283769712022
2025-01-08 10:07:58.085886976,1.34370732,0.8709878293447391
2025-01-08 10:07:58.090141952,1.17488742,0.8566337794928969
2025-01-08 10:07:58.099224064,0.95931917,0.8420777902953226
2025-01-08 10:07:58.166678016,0.80886853,0.8273315014625686
2025-01-08 10:07:58.166696960,0.77500403,0.8124066200753334
2025-01-08 10:07:58.166702080,0.82907414,0.7973149111034926
2025-01-08 10:07:58.166707968,0.88104808,0.7820681879127395
2025-01-08 10:07:58.166713088,0.85692799,0.7666783027666396
2025-01-08 10:07:58.166718976,0.7789669,0.7511571373319004
2025-01-08 10:07:58.173688832,0.66996479,0.7355165931946288
2025-01-08 10:07:58.180221184,0.5659976,0.719768582395324
2025-01-08 10:07:58.202267904,0.5244621,0.7039250179903269
2025-01-08 10:07:58.202290176,0.53240395,0.6879978046473981
2025-01-08 10:07:58.208070912,0.52514791,0.6719988292830608
2025-01-08 10:07:58.220491776,0.49588108,0.6559399517492827
2025-01-08 10:07:58.229186048,0.46920952,0.6398329955770233
2025-01-08 10:07:58.239624960,0.4904753,0.6236897387840992
2025-01-08 10:07:58.248023040,0.49844995,0.6075219047547568
2025-01-08 10:07:58.259601152,0.45127046,0.5913411531982599
2025-01-08 10:07:58.269161984,0.38076016,0.5751590711937186
2025-01-08 10:07:58.279110912,0.3318156,0.5589871643283
2025-01-08 10:07:58.288039936,0.34502453,0.542836847935865
2025-01-08 10:07:58.298113024,0.36182141,0.5267194384429685
2025-01-08 10:07:58.308115968,0.35767782,0.5106461448290717
2025-01-08 10:07:58.318115840,0.36030924,0.49462806020768
2025-01-08 10:07:58.329571072,0.35901341,0.47867615353503146
2025-01-08 10:07:58.338174976,0.38807622,0.4628012614528069
2025-01-08 10:07:58.348134144,0.45833752,0.447014080271235
2025-01-08 10:07:58.416210944,0.50632113,0.4313251580988135
2025-01-08 10:07:58.416230912,0.54614729,0.41574488712473595
2025-01-08 10:07:58.416238080,0.58319259,0.40028349605997715
2025-01-08 10:07:58.416243200,0.55383307,0.3849510427428296
2025-01-08 10:07:58.416249088,0.43500367,0.369757406914548
2025-01-08 10:07:58.416253952,0.31398445,0.3547122831705875
2025-01-08 10:07:58.432747008,0.32373855,0.33982517409277274
2025-01-08 10:07:58.432764160,0.51494694,0.3251053835675605
2025-01-08 10:07:58.441200896,0.7717706,0.31056201029539643
2025-01-08 10:07:58.448157952,0.95715165,0.29620394149599155
2025-01-08 10:07:58.458213120,1.02243102,0.2820398468141677
2025-01-08 10:07:58.468163072,0.98239315,0.26807817243073845
2025-01-08 10:07:58.478333952,0.93472618,0.25432713538271295
2025-01-08 10:07:58.488408064,0.89603978,0.2407947180969229
2025-01-08 10:07:58.498835200,0.84069824,0.22748866314097663
2025-01-08 10:07:58.508312832,0.76380992,0.21441646819526186
2025-01-08 10:07:58.518390784,0.76526207,0.20158538124951275
2025-01-08 10:07:58.528430080,0.83453661,0.18900239602726543
2025-01-08 10:07:58.539650048,0.93699461,0.1766742476413259
2025-01-08 10:07:58.550155008,1.00894916,0.16460740848316235
2025-01-08 10:07:58.558610944,1.00457418,0.15280808434894308
2025-01-08 10:07:58.568569856,0.97146505,0.14128221080472017
2025-01-08 10:07:58.580050944,0.94399625,0.13003544979306367
2025-01-08 10:07:58.592478976,0.91761178,0.11907318648322666
2025-01-08 10:07:58.598372864,0.87258005,0.10840052636672567
2025-01-08 10:07:58.615629824,0.81873405,0.09802229259999344
2025-01-08 10:07:58.620243968,0.74031299,0.08794302359555976
2025-01-08 10:07:58.628293120,0.66149813,0.0781669708629914
2025-01-08 10:07:58.638340096,0.6008212,0.068698097100616
2025-01-08 10:07:58.648355072,0.54945469,0.0595400745388317
2025-01-08 10:07:58.658390016,0.51408583,0.05069628353559458
2025-01-08 10:07:58.668337152,0.50104612,0.04216981142445455
2025-01-08 10:07:58.678397952,0.49402851,0.03396345161530028
2025-01-08 10:07:58.688396032,0.45310831,0.026079702947753667
2025-01-08 10:07:58.698450944,0.34660149,0.018520769296940978
2025-01-08 10:07:58.708358912,0.2170065,0.011288559431156328
2025-01-08 10:07:58.718440960,0.09915829,0.004384687120712738
2025-01-08 10:07:58.728473856,-0.01695758,-0.002189528502926771
2025-01-08 10:07:58.738648832,-0.13667607,-0.008433062338868728
2025-01-08 10:07:58.748472832,-0.26020968,-0.01434518246068423
2025-01-08 10:07:58.758572032,-0.372491,-0.01992544901403162
2025-01-08 10:07:58.768420864,-0.46593255,-0.025173712869747303
2025-01-08 10:07:58.778567936,-0.54344642,-0.030090114034362337
2025-01-08 10:07:58.788502016,-0.59843576,-0.03467507982019793
2025-01-08 10:07:58.798512896,-0.64800572,-0.03892932277739895
2025-01-08 10:07:58.817278976,-0.69719642,-0.04285383839045576
2025-01-08 10:07:58.822080000,-0.73671716,-0.0464499025419648
2025-01-08 10:07:58.828516864,-0.76418597,-0.049719068746569936
2025-01-08 10:07:58.838553856,-0.77810776,-0.05266316515821494
2025-01-08 10:07:58.848552960,-0.7737332,-0.05528429135402471
2025-01-08 10:07:58.858510080,-0.76802546,-0.057584814898315045
2025-01-08 10:07:58.868438016,-0.76164019,-0.05956736769041342
2025-01-08 10:07:58.878575104,-0.75068229,-0.061234842100145716
2025-01-08 10:07:58.888630016,-0.76841813,-0.0625903868950201
2025-01-08 10:07:58.898567936,-0.8044861,-0.0636374029633046
2025-01-08 10:07:58.908605952,-0.84083086,-0.0643795388373642
2025-01-08 10:07:58.918819072,-0.86128771,-0.0648206860217782
2025-01-08 10:07:58.931139072,-0.85773253,-0.0649649741309219
2025-01-08 10:07:58.939042048,-0.83554798,-0.06481676584084242
2025-01-08 10:07:58.948815104,-0.79432672,-0.06438065166041097
2025-01-08 10:07:58.958769920,-0.74791813,-0.06366144452687501
2025-01-08 10:07:58.968688896,-0.66107911,-0.06266417423107157
2025-01-08 10:07:58.978753024,-0.52140886,-0.061394081677697644
2025-01-08 10:07:58.988881152,-0.34897453,-0.059856612986162704
2025-01-08 10:07:58.999078912,-0.17488259,-0.05805741343766953
2025-01-08 10:07:59.008805888,0.00775319,-0.05600232127429281
2025-01-08 10:07:59.018883072,0.21243131,-0.05369736135593064
2025-01-08 10:07:59.029009152,0.40578312,-0.05114873868112081
2025-01-08 10:07:59.040497152,0.54485685,-0.04836283177780933
2025-01-08 10:07:59.048847872,0.63493073,-0.04534618597025918
2025-01-08 10:07:59.058969088,0.67865038,-0.04210550652837875
2025-01-08 10:07:59.068884992,0.68603671,-0.03864765170583194
2025-01-08 10:07:59.078908928,0.6550312,-0.034979625673378804
2025-01-08 10:07:59.088886016,0.59795153,-0.031108571353960755
2025-01-08 10:07:59.098907904,0.54335415,-0.02704176316612333
2025-01-08 10:07:59.109153024,0.49104214,-0.022786599682422103
2025-01-08 10:07:59.118855936,0.45361316,-0.018350596209523614
2025-01-08 10:07:59.128971008,0.42145461,-0.013741377296756518
2025-01-08 10:07:59.139120128,0.39079893,-0.008966669179917546
2025-01-08 10:07:59.149884928,0.37595356,-0.0040342921671743855
2025-01-08 10:07:59.159228928,0.35789406,0.0010478470260595794
2025-01-08 10:07:59.168865792,0.29258859,0.00627176298637573
2025-01-08 10:07:59.179127040,0.20429647,0.011629399348824327
2025-01-08 10:07:59.188908032,0.12127191,0.017112636573633853
2025-01-08 10:07:59.199171072,0.02821851,0.022713299746249256
2025-01-08 10:07:59.208947968,-0.07421613,0.028423166393739596
2025-01-08 10:07:59.219269888,-0.17233539,0.034233974310631105
2025-01-08 10:07:59.229058048,-0.25381589,0.040137429387228404
2025-01-08 10:07:59.239218944,-0.32013094,0.04612521343350286
2025-01-08 10:07:59.248985088,-0.34717017,0.052188991991651064
2025-01-08 10:07:59.259196928,-0.33990651,0.05832042213044935
2025-01-08 10:07:59.268999936,-0.31062901,0.0645111602145689
2025-01-08 10:07:59.279150080,-0.27590472,0.07075286964204995
2025-01-08 10:07:59.289096192,-0.25602883,0.07703722854318389
2025-01-08 10:07:59.299290880,-0.25520331,0.08335593743409911
2025-01-08 10:07:59.308998144,-0.27504945,0.08970072681840645
2025-01-08 10:07:59.319175936,-0.30309236,0.09606336473031798
2025-01-08 10:07:59.329004032,-0.31261581,0.10243566421272783
2025-01-08 10:07:59.339149056,-0.32672435,0.10880949072380987
2025-01-08 10:07:59.349061120,-0.39064169,0.11517676946577186
2025-01-08 10:07:59.359333888,-0.52436757,0.1215294926294886
2025-01-08 10:07:59.369106176,-0.70277971,0.12785972654882294
2025-01-08 10:07:59.379203072,-0.90995884,0.1341596187585462
2025-01-08 10:07:59.389069056,-1.10957623,0.14042140494986266
2025-01-08 10:07:59.399182080,-1.30005503,0.14663741581765055
2025-01-08 10:07:59.409108992,-1.4827497,0.15280008379364488
2025-01-08 10:07:59.419238144,-1.59560382,0.15890194965989818
2025-01-08 10:07:59.429143040,-1.60352838,0.16493566903697926
2025-01-08 10:07:59.439218944,-1.56847858,0.17089401874148993
2025-01-08 10:07:59.449174016,-1.59833109,0.1767699030076147
2025-01-08 10:07:59.459467008,-1.63512659,0.1825563595675459
2025-01-08 10:07:59.469264896,-1.56215215,0.18824656558576844
2025-01-08 10:07:59.479350016,-1.42220688,0.1938338434423286
2025-01-08 10:07:59.489249024,-1.37327147,0.19931166636035702
2025-01-08 10:07:59.499355136,-1.44359946,0.20467366387326644
2025-01-08 10:07:59.509349120,-1.50729465,0.20991362712719935
2025-01-08 10:07:59.519406080,-1.51674628,0.2150255140144523
2025-01-08 10:07:59.529318144,-1.52201533,0.2200034541337735
2025-01-08 10:07:59.539344128,-1.49558187,0.22484175357358466
2025-01-08 10:07:59.549277952,-1.48333585,0.2295348995143517
2025-01-08 10:07:59.559346944,-1.67728591,0.23407756464649593
2025-01-08 10:07:59.569224192,-2.0979619,0.23846461140040928
2025-01-08 10:07:59.579202816,-2.46506071,0.24269109598531677
2025-01-08 10:07:59.589585152,-2.50836039,0.2467522722339028
2025-01-08 10:07:59.599101184,-1.62387514,0.25064359524980195
2025-01-08 10:07:59.609213952,-0.02270204,0.25436072485523487
2025-01-08 10:07:59.619241984,1.49763036,0.2578995288362567
2025-01-08 10:07:59.630727936,2.26339746,0.26125608598327144
2025-01-08 10:07:59.639308032,2.76532125,0.2644266889246529
2025-01-08 10:07:59.649605888,4.04049969,0.2674078467515057
2025-01-08 10:07:59.659212032,4.7120533,0.27019628743178614
2025-01-08 10:07:59.669336064,4.34514856,0.2727889600122021
2025-01-08 10:07:59.679330048,3.8684876,0.27518303660649696
2025-01-08 10:07:59.689358080,3.44359994,0.27737591416892465
2025-01-08 10:07:59.699384832,2.87548089,0.27936521605191034
2025-01-08 10:07:59.709485056,2.12385917,0.2811487933470945
2025-01-08 10:07:59.719266048,1.28793061,0.28272472600914766
2025-01-08 10:07:59.729338880,0.60366225,0.28409132376194385
2025-01-08 10:07:59.739383040,0.21054283,0.2852471267868731
2025-01-08 10:07:59.749370112,-0.18097296,0.2861909061932747
2025-01-08 10:07:59.759355136,-0.86244571,0.2869216642711607
2025-01-08 10:07:59.769387008,-1.51273489,0.2874386345266033
2025-01-08 10:07:59.779300096,-1.66548061,0.2877412815003456
2025-01-08 10:07:59.789419776,-1.44399631,0.28782930037039733
2025-01-08 10:07:59.799412992,-1.14481926,0.2877026163395601
2025-01-08 10:07:59.809413888,-0.77857137,0.2873613838090292
2025-01-08 10:07:59.819472128,-0.37471557,0.28680598533939716
2025-01-08 10:07:59.829471232,-0.13463289,0.28603703040058337
2025-01-08 10:07:59.839511040,-0.09107118,0.28505535391239323
2025-01-08 10:07:59.849447936,-0.09721473,0.2838620145776006
2025-01-08 10:07:59.859462144,0.01210972,0.28245829300962466
2025-01-08 10:07:59.869911808,0.15861779,0.2808456896570594
2025-01-08 10:07:59.879558144,0.22542055,0.27902592252748726
2025-01-08 10:07:59.889451008,0.23560929,0.2770009247131869
2025-01-08 10:07:59.899512064,0.21014252,0.2747728417215169
2025-01-08 10:07:59.909563904,0.15775809,0.2723440286129307
2025-01-08 10:07:59.919568896,0.15623227,0.26971704694974014
2025-01-08 10:07:59.929553152,0.21877441,0.26689466155891595
2025-01-08 10:07:59.939714816,0.30242869,0.26387983711236973
2025-01-08 10:07:59.949537024,0.36868644,0.2606757345283223
2025-01-08 10:07:59.959543040,0.42673415,0.2572857071975174
2025-01-08 10:07:59.970112000,0.49792168,0.2537132970381904
2025-01-08 10:07:59.980552960,0.5963217,0.24996223038384724
2025-01-08 10:07:59.989680128,0.67308444,0.24603641370805573
2025-01-08 10:07:59.999606016,0.76581663,0.24193992919058593
2025-01-08 10:08:00.010121984,0.85113364,0.23767703012937483
2025-01-08 10:08:00.020401920,0.8695035,0.23325213620291907
2025-01-08 10:08:00.029863168,0.92687601,0.22866982858782797
2025-01-08 10:08:00.039527936,1.03102994,0.22393484493638935
2025-01-08 10:08:00.049586176,1.05854905,0.21905207421911915
2025-01-08 10:08:00.059612160,0.9947437,0.2140265514373773
2025-01-08 10:08:00.069678080,0.8941654,0.20886345221124342
2025-01-08 10:08:00.079610112,0.81805873,0.20356808724794512
2025-01-08 10:08:00.089564160,0.83122772,0.1981458966962327
2025-01-08 10:08:00.099670784,0.92088097,0.19260244439218682
2025-01-08 10:08:00.109692160,0.91445249,0.1869434120020337
2025-01-08 10:08:00.119678976,0.76698935,0.18117459306762537
2025-01-08 10:08:00.129673984,0.55155379,0.17530188696032062
2025-01-08 10:08:00.139683840,0.31953657,0.16933129274907477
2025-01-08 10:08:00.149636864,0.21167237,0.163268902988614
2025-01-08 10:08:00.159645184,0.44529557,0.1571208974336315
2025-01-08 10:08:00.169712128,0.98603415,0.15089353668499922
2025-01-08 10:08:00.179641856,1.55655718,0.1445931557740392
2025-01-08 10:08:00.189739008,1.78425825,0.1382261576909465
2025-01-08 10:08:00.199771904,1.56380796,0.1317990068634923
2025-01-08 10:08:00.209752064,1.26596546,0.1253182225921719
2025-01-08 10:08:00.219865088,1.18746591,0.11879037244799187
2025-01-08 10:08:00.229840128,1.21103668,0.11222206563911051
2025-01-08 10:08:00.239883008,1.16332281,0.10561994635256795
2025-01-08 10:08:00.249958912,1.01806617,0.09899068707735015
2025-01-08 10:08:00.260098816,0.85951108,0.09234098191503803
2025-01-08 10:08:00.269891072,0.77703542,0.08567753988429548
2025-01-08 10:08:00.279758848,0.81854439,0.0790070782254427
2025-01-08 10:08:00.289846016,0.94100177,0.07233631571135142
2025-01-08 10:08:00.299806208,1.04500568,0.06567196597088294
2025-01-08 10:08:00.309796096,1.05503607,0.05902073083106681
2025-01-08 10:08:00.319983872,0.98350179,0.052389293684190257
2025-01-08 10:08:00.329803008,0.9013707,0.04578431288593871
2025-01-08 10:08:00.339869952,0.82271677,0.0392124151906834
2025-01-08 10:08:00.349837056,0.75669062,0.03268018922997589
2025-01-08 10:08:00.359865856,0.70431376,0.026194179040250412
2025-01-08 10:08:00.369891840,0.65489388,0.01976087764569046
2025-01-08 10:08:00.379834880,0.6134941,0.013386720702148367
2025-01-08 10:08:00.390055936,0.55714065,0.007078080207945109
2025-01-08 10:08:00.399971072,0.48938775,0.000841258287304362
2025-01-08 10:08:00.409900800,0.4215498,-0.005317518947895155
2025-01-08 10:08:00.419898112,0.36097509,-0.011392107452452081
2025-01-08 10:08:00.429796096,0.30560708,-0.017376451212745336
2025-01-08 10:08:00.439863808,0.25258189,-0.02326458811678153
2025-01-08 10:08:00.449872128,0.19204903,-0.029050655724059824
2025-01-08 10:08:00.460024064,0.13090777,-0.03472889693002402
2025-01-08 10:08:00.470030080,0.08750838,-0.040293665519978795
2025-01-08 10:08:00.480050944,0.04117274,-0.04573943160745215
2025-01-08 10:08:00.490158080,-0.00355017,-0.05106078695210443
2025-01-08 10:08:00.500318976,-0.04581553,-0.056252450152396424
2025-01-08 10:08:00.510140928,-0.08157575,-0.0613092717083563
2025-01-08 10:08:00.520108032,-0.10821497,-0.06622623894990715
2025-01-08 10:08:00.530034176,-0.12622148,-0.07099848082634627
2025-01-08 10:08:00.540091904,-0.14134294,-0.07562127255270622
2025-01-08 10:08:00.550013952,-0.16076398,-0.08009004010885869
2025-01-08 10:08:00.559986944,-0.19452626,-0.08440036458736619
2025-01-08 10:08:00.570086912,-0.23019683,-0.08854798638623151
2025-01-08 10:08:00.580110080,-0.2820819,-0.09252880924284196
2025-01-08 10:08:00.590248192,-0.3684417,-0.09633890410555393
2025-01-08 10:08:00.600092928,-0.48104006,-0.09997451283952231
2025-01-08 10:08:00.610068992,-0.5859161,-0.10343205176353085
2025-01-08 10:08:00.620118016,-0.64740306,-0.10670811501474162
2025-01-08 10:08:00.630089984,-0.66282326,-0.10979947773844483
2025-01-08 10:08:00.640148992,-0.6518203,-0.11270309910005266
2025-01-08 10:08:00.651066112,-0.64617336,-0.11541612511674985
2025-01-08 10:08:00.660180992,-0.66989475,-0.11793589130637833
2025-01-08 10:08:00.670169088,-0.71608126,-0.12025992515131367
2025-01-08 10:08:00.680212992,-0.74775428,-0.12238594837525162
2025-01-08 10:08:00.690329088,-0.75877684,-0.12431187903100953
2025-01-08 10:08:00.700308992,-0.76171845,-0.12603583339761396
2025-01-08 10:08:00.710238976,-0.74372178,-0.12755612768513014
2025-01-08 10:08:00.720174080,-0.69034237,-0.12887127954586408
2025-01-08 10:08:00.730168064,-0.62971491,-0.1299800093907489
2025-01-08 10:08:00.740264960,-0.60390919,-0.13088124150990776
2025-01-08 10:08:00.750241024,-0.59403622,-0.13157410499656708
2025-01-08 10:08:00.760254976,-0.56800801,-0.13205793447367586
2025-01-08 10:08:00.770243840,-0.50069892,-0.13233227062276773
2025-01-08 10:08:00.780385024,-0.39359498,-0.13239686051478813
2025-01-08 10:08:00.790224128,-0.25226188,-0.13225165774278913
2025-01-08 10:08:00.800379136,-0.08967346,-0.13189682235657604
2025-01-08 10:08:00.810234112,0.0548088,-0.13133272059957712
2025-01-08 10:08:00.820164864,0.16215652,-0.1305599244483819
2025-01-08 10:08:00.830616832,0.23179311,-0.12957921095558367
2025-01-08 10:08:00.840531968,0.29539424,-0.1283915613967346
2025-01-08 10:08:00.850173952,0.36450171,-0.12699816022240668
2025-01-08 10:08:00.860295168,0.41468853,-0.12540039381652585
2025-01-08 10:08:00.870342144,0.47266066,-0.12359984906233006
2025-01-08 10:08:00.880451072,0.52545744,-0.12159831171747067
2025-01-08 10:08:00.890292992,0.52654779,-0.11939776459995684
2025-01-08 10:08:00.900404992,0.47356522,-0.11700038558681121
2025-01-08 10:08:00.910363904,0.43256646,-0.11440854542747898
2025-01-08 10:08:00.920320000,0.41934925,-0.11162480537420026
2025-01-08 10:08:00.930342912,0.38610119,-0.10865191463171976
2025-01-08 10:08:00.940314112,0.31809688,-0.10549280762887563
2025-01-08 10:08:00.950254080,0.2462104,-0.10215060111477062
2025-01-08 10:08:00.960384000,0.18217194,-0.09862859108238568
2025-01-08 10:08:00.970355968,0.10488045,-0.09493024952265448
2025-01-08 10:08:00.980464896,0.00296265,-0.09105922101217058
2025-01-08 10:08:00.990892800,-0.09876406,-0.08701931913784969
2025-01-08 10:08:01.004077056,-0.16776043,-0.08281452276201764
2025-01-08 10:08:01.010528000,-0.21732247,-0.07844897213153527
2025-01-08 10:08:01.020435968,-0.25045824,-0.07392696483471829
2025-01-08 10:08:01.030416128,-0.27845418,-0.06925295160994183
2025-01-08 10:08:01.040404992,-0.312464,-0.06443153200995666
2025-01-08 10:08:01.050395904,-0.33886838,-0.05946744992607094
2025-01-08 10:08:01.060497152,-0.33723003,-0.05436558897648019
2025-01-08 10:08:01.070464000,-0.31389046,-0.049130967763148216
2025-01-08 10:08:01.080468992,-0.32886076,-0.04376873500175974
2025-01-08 10:08:01.090512128,-0.40822542,-0.03828416452938071
2025-01-08 10:08:01.100493056,-0.45816565,-0.032682650194568
2025-01-08 10:08:01.110572032,-0.47333097,-0.026969700634780488
2025-01-08 10:08:01.120513792,-0.53179711,-0.02115093394603876
2025-01-08 10:08:01.130507008,-0.66688824,-0.015232072249879311
2025-01-08 10:08:01.140515072,-0.8117401,-0.009218936162740282
2025-01-08 10:08:01.150466816,-0.86958909,-0.003117439173001294
2025-01-08 10:08:01.160641024,-0.8730638,0.003066418069018391
2025-01-08 10:08:01.170530048,-0.90109879,0.009326553542720904
2025-01-08 10:08:01.180562944,-0.95958203,0.01565680972509847
2025-01-08 10:08:01.190551040,-1.04880595,0.02205095952928723
2025-01-08 10:08:01.200598016,-1.18456233,0.0285027123082275
2025-01-08 10:08:01.210926080,-1.34822989,0.03500571991779063
2025-01-08 10:08:01.220621056,-1.46936536,0.04155358283368211
2025-01-08 10:08:01.230611968,-1.48944616,0.04813985631638493
2025-01-08 10:08:01.240640000,-1.41165268,0.05475805661836963
2025-01-08 10:08:01.250583040,-1.30286944,0.06140166722775228
2025-01-08 10:08:01.260605952,-1.23586822,0.06806414514256419
2025-01-08 10:08:01.270593024,-1.24908566,0.07473892716975919
2025-01-08 10:08:01.280688896,-1.30909622,0.08141943624307571
2025-01-08 10:08:01.290656000,-1.34917903,0.08809908775384832
2025-01-08 10:08:01.300726784,-1.32885814,0.09477129588885937
2025-01-08 10:08:01.311675904,-1.29363108,0.10142947996931648
2025-01-08 10:08:01.320754176,-1.29861069,0.10806707078504205
2025-01-08 10:08:01.330686208,-1.32179224,0.11467751691797082
2025-01-08 10:08:01.340698112,-1.3542825,0.12125429104906042
2025-01-08 10:08:01.350672128,-1.36252809,0.12779089624274476
2025-01-08 10:08:01.360747008,-1.42075026,0.1342808722030729
2025-01-08 10:08:01.370742016,-1.91727579,0.14071780149571472
2025-01-08 10:08:01.380784128,-3.17778945,0.14709531573004356
2025-01-08 10:08:01.390764032,-4.51283836,0.15340710169554375
2025-01-08 10:08:01.400774912,-4.15795565,0.15964690744684135
2025-01-08 10:08:01.410734848,-2.26770282,0.1658085483316997
2025-01-08 10:08:01.420751104,-0.80400783,0.17188591295637845
2025-01-08 10:08:01.430804992,0.53605449,0.1778729690828157
2025-01-08 10:08:01.440915968,1.93050289,0.18376376945215686
2025-01-08 10:08:01.451386880,2.81595898,0.18955245752922087
2025-01-08 10:08:01.460936960,3.15001655,0.19523327316257477
2025-01-08 10:08:01.470868992,2.90080643,0.20080055815495976
2025-01-08 10:08:01.480998912,2.82805085,0.2062487617389042
2025-01-08 10:08:01.490951168,3.04377747,0.21157244595243815
2025-01-08 10:08:01.500901888,2.89823341,0.2167662909099301
2025-01-08 10:08:01.510983936,2.26709294,0.22182509996314995
2025-01-08 10:08:01.521035008,1.68628788,0.22674380474777595
2025-01-08 10:08:01.530814976,1.52018034,0.23151747011066517
2025-01-08 10:08:01.540766976,1.61197209,0.2361412989133191
2025-01-08 10:08:01.550816000,1.58977985,0.240610636707089
2025-01-08 10:08:01.560792832,1.2501924,0.2449209762757869
2025-01-08 10:08:01.570797824,0.79234785,0.24906796204149192
2025-01-08 10:08:01.581243904,0.90380251,0.25304739432946255
2025-01-08 10:08:01.590880000,1.47488213,0.25685523348820566
2025-01-08 10:08:01.600904960,1.76271796,0.26048760386087394
2025-01-08 10:08:01.611020032,1.55928302,0.2639407976043145
2025-01-08 10:08:01.620871936,1.09931469,0.2672112783522233
2025-01-08 10:08:01.633093120,0.77356786,0.2702956847190015
2025-01-08 10:08:01.641114112,0.6112082,0.27319083364107044
2025-01-08 10:08:01.651074816,0.48600286,0.2758937235525337
2025-01-08 10:08:01.660954112,0.41985327,0.27840153739224044
2025-01-08 10:08:01.670981888,0.39363876,0.2807116454394542
2025-01-08 10:08:01.681030912,0.34199947,0.28282160797548966
2025-01-08 10:08:01.691005952,0.27423248,0.2847291777688397
2025-01-08 10:08:01.701092864,0.19657308,0.28643230238147777
2025-01-08 10:08:01.711031040,0.10853748,0.2879291262941845
2025-01-08 10:08:01.721059072,0.01981539,0.2892179928489143
2025-01-08 10:08:01.731002112,-0.01654777,0.2902974460063853
2025-01-08 10:08:01.741053952,-0.03830145,0.291166231917245
2025-01-08 10:08:01.750961152,-0.07776624,0.2918233003053344
2025-01-08 10:08:01.761091840,-0.11154008,0.29226780566175065
2025-01-08 10:08:01.771122944,-0.15707681,0.2924991082485732
2025-01-08 10:08:01.781069056,-0.21996328,0.29251677491130074
2025-01-08 10:08:01.791120896,-0.28718609,0.2923205796992163
2025-01-08 10:08:01.801122816,-0.31988001,0.29191050429307885
2025-01-08 10:08:01.811096832,-0.2995719,0.291286738239709
2025-01-08 10:08:01.821137920,-0.24510005,0.2904496789932218
2025-01-08 10:08:01.831085056,-0.1671094,0.2893999317628286
2025-01-08 10:08:01.841274880,-0.05149996,0.28813830916731403
2025-01-08 10:08:01.851293952,0.06233579,0.2866658306964656
2025-01-08 10:08:01.861124096,0.14514583,0.28498372197991273
2025-01-08 10:08:01.871119104,0.20465946,0.283093413864008
2025-01-08 10:08:01.881155840,0.24366528,0.28099654129755947
2025-01-08 10:08:01.891172864,0.25302118,0.2786949420273954
2025-01-08 10:08:01.901210112,0.25992179,0.27619065510491986
2025-01-08 10:08:01.911181056,0.28642887,0.2734859192049883
2025-01-08 10:08:01.921242880,0.31184399,0.270583170758604
2025-01-08 10:08:01.931219200,0.31600374,0.2674850419011087
2025-01-08 10:08:01.941157120,0.30031025,0.2641943582377058
2025-01-08 10:08:01.951283968,0.33278316,0.26071413642832353
2025-01-08 10:08:01.962089984,0.44099575,0.257047581593994
2025-01-08 10:08:01.971211008,0.52212161,0.2531980845470779
2025-01-08 10:08:01.981677056,0.45580572,0.24916921884783724
2025-01-08 10:08:01.991205888,0.32082617,0.24496473769000826
2025-01-08 10:08:02.001280000,0.27925789,0.2405885706181866
2025-01-08 10:08:02.011262976,0.43210822,0.23604482007999245
2025-01-08 10:08:02.021289984,0.72895223,0.23133775781613006
2025-01-08 10:08:02.031333888,1.05222583,0.2264718210916077
2025-01-08 10:08:02.041292800,1.30817866,0.22145160877152725
2025-01-08 10:08:02.051251968,1.45647109,0.2162818772449973
2025-01-08 10:08:02.061622016,1.51401281,0.2109675362008602
2025-01-08 10:08:02.071266048,1.48239648,0.2055136442590594
2025-01-08 10:08:02.081316096,1.32521081,0.19992540446160728
2025-01-08 10:08:02.091303936,1.14046121,0.19420815962724028
2025-01-08 10:08:02.101371136,1.07311511,0.18836738757397337
2025-01-08 10:08:02.111330048,1.17803979,0.18240869621388828
2025-01-08 10:08:02.121239040,1.30957747,0.17633781852460495
2025-01-08 10:08:02.131324160,1.32909226,0.17016060740199943
2025-01-08 10:08:02.141398016,1.25864255,0.16388303039884286
2025-01-08 10:08:02.151264000,1.15088546,0.15751116435413368
2025-01-08 10:08:02.161309952,1.02946341,0.15105118991800642
2025-01-08 10:08:02.171364096,0.92218226,0.14450938597718596
2025-01-08 10:08:02.181431040,0.82911658,0.13789212398605327
2025-01-08 10:08:02.191417856,0.73494142,0.13120586220847436
2025-01-08 10:08:02.201441024,0.64984554,0.12445713987562627
2025-01-08 10:08:02.211440128,0.59291101,0.11765257126513032
2025-01-08 10:08:02.221581056,0.55586958,0.11079883970687755
2025-01-08 10:08:02.231537152,0.50975358,0.10390269152099668
2025-01-08 10:08:02.241664768,0.45285612,0.09697092989347962
2025-01-08 10:08:02.251597824,0.40024167,0.09001040869503657
2025-01-08 10:08:02.261519872,0.35362065,0.08302802624880634
2025-01-08 10:08:02.271451904,0.30472594,0.07603071905259255
2025-01-08 10:08:02.281477888,0.25619721,0.069025455461343
2025-01-08 10:08:02.291513856,0.19399029,0.06201922933562541
2025-01-08 10:08:02.301438208,0.12042856,0.05501905366188167
2025-01-08 10:08:02.311482880,0.05405986,0.04803195415027424
2025-01-08 10:08:02.321436928,0.00450802,0.04106496281596031
2025-01-08 10:08:02.331554816,-0.02385437,0.03412511154963912
2025-01-08 10:08:02.341564928,-0.0397222,0.02721942568323828
2025-01-08 10:08:02.351780864,-0.05532247,0.0203549175566039
2025-01-08 10:08:02.361592064,-0.07561451,0.013538580091062803
2025-01-08 10:08:02.371651840,-0.10104221,0.0067773803757192105
2025-01-08 10:08:02.381735936,-0.13311243,7.825327234157048e-05
2025-01-08 10:08:02.391532032,-0.1712935,-0.006551904955327455
2025-01-08 10:08:02.401577984,-0.21482682,-0.013106242982016226
2025-01-08 10:08:02.411556864,-0.26280832,-0.01957796072533599
2025-01-08 10:08:02.421713152,-0.313541,-0.025960315608398003
2025-01-08 10:08:02.431750144,-0.36174172,-0.03224662877491246
2025-01-08 10:08:02.441703168,-0.39721668,-0.03843029125108789
2025-01-08 10:08:02.451699968,-0.4111495,-0.04450477004869282
2025-01-08 10:08:02.461827072,-0.40262979,-0.05046361420369769
2025-01-08 10:08:02.471767808,-0.37955385,-0.05630046074496841
2025-01-08 10:08:02.481796864,-0.36682206,-0.06200904058754804
2025-01-08 10:08:02.491715072,-0.38089508,-0.06758318434512423
2025-01-08 10:08:02.501744128,-0.41838712,-0.07301682805635798
2025-01-08 10:08:02.511673856,-0.45934141,-0.07830401881982232
2025-01-08 10:08:02.521612800,-0.48928994,-0.08343892033237997
2025-01-08 10:08:02.531958016,-0.4994387,-0.08841581832591708
2025-01-08 10:08:02.541732096,-0.51702297,-0.09322912589743876
2025-01-08 10:08:02.551744000,-0.53342724,-0.09787338872762927
2025-01-08 10:08:02.561826048,-0.55444896,-0.10234329018307556
2025-01-08 10:08:02.571717888,-0.57945997,-0.10663365629746095
2025-01-08 10:08:02.581819136,-0.60220706,-0.11073946062713927
2025-01-08 10:08:02.591713792,-0.60446137,-0.11465582897661583
2025-01-08 10:08:02.601761024,-0.58754575,-0.11837804398957638
2025-01-08 10:08:02.611777024,-0.56344795,-0.12190154960122289
2025-01-08 10:08:02.621819136,-0.51570004,-0.12522195534780278
2025-01-08 10:08:02.631778048,-0.43156469,-0.12833504052934627
2025-01-08 10:08:02.641819904,-0.35263532,-0.13123675822175113
2025-01-08 10:08:02.651753984,-0.30193746,-0.1339232391344989
2025-01-08 10:08:02.661657088,-0.27140516,-0.13639079531041678
2025-01-08 10:08:02.671793920,-0.2335875,-0.1386359236640453
2025-01-08 10:08:02.681806080,-0.14709216,-0.14065530935531462
2025-01-08 10:08:02.691776000,-0.03101897,-0.14244582899538114
2025-01-08 10:08:02.701890048,0.07070422,-0.14400455368162524
2025-01-08 10:08:02.711836928,0.14591271,-0.1453287518589659
2025-01-08 10:08:02.722099968,0.17905682,-0.14641589200480226
2025-01-08 10:08:02.731915008,0.15093279,-0.14726364513505197
2025-01-08 10:08:02.741931008,0.08731055,-0.14786988712891402
2025-01-08 10:08:02.751801856,0.05813611,-0.14823270087015217
2025-01-08 10:08:02.761864960,0.07748777,-0.14835037820285166
2025-01-08 10:08:02.771857920,0.10633683,-0.14822142169977826
2025-01-08 10:08:02.781893120,0.13244295,-0.14784454624162757
2025-01-08 10:08:02.791929856,0.15767372,-0.14721868040562996
2025-01-08 10:08:02.801896960,0.18935794,-0.1463429676621451
2025-01-08 10:08:02.812061952,0.25136095,-0.14521676737805167
2025-01-08 10:08:02.822066944,0.33734322,-0.14383965562591258
2025-01-08 10:08:02.831901184,0.41887707,-0.14221142579807353
2025-01-08 10:08:02.841988096,0.44441622,-0.1403320890250237
2025-01-08 10:08:02.851838976,0.40486693,-0.1382018743975268
2025-01-08 10:08:02.861944064,0.35708386,-0.13582122899220705
2025-01-08 10:08:02.872039936,0.32680082,-0.13319081770045124
2025-01-08 10:08:02.881937920,0.29696786,-0.13031152286066483
2025-01-08 10:08:02.892003072,0.2583428,-0.1271844436940999
2025-01-08 10:08:02.902019072,0.21204752,-0.12381089554464549
2025-01-08 10:08:02.912032000,0.18594009,-0.12019240892315294
2025-01-08 10:08:02.922044160,0.1708076,-0.11633072835704167
2025-01-08 10:08:02.932029952,0.14208961,-0.11222781104610735
2025-01-08 10:08:02.942102016,0.08686024,-0.10788582532563067
2025-01-08 10:08:02.952066816,0.00547433,-0.10330714893805772
2025-01-08 10:08:02.962036992,-0.06517637,-0.09849436711469671
2025-01-08 10:08:02.972454912,-0.09023035,-0.09345027046904834
2025-01-08 10:08:02.982038016,-0.06437409,-0.08817785270355366
2025-01-08 10:08:02.991977984,-0.04395235,-0.08268030813171914
2025-01-08 10:08:03.002001920,-0.05675888,-0.07696102901773862
2025-01-08 10:08:03.011905792,-0.09036881,-0.07102360273590207
2025-01-08 10:08:03.021955072,-0.15389055,-0.06487180875224098
2025-01-08 10:08:03.031963136,-0.23203176,-0.058509615431024176
2025-01-08 10:08:03.041987840,-0.29153126,-0.05194117666887612
2025-01-08 10:08:03.051960064,-0.35122788,-0.045170828359443686
2025-01-08 10:08:03.062302976,-0.42070806,-0.038203084691695276
2025-01-08 10:08:03.072428032,-0.50558662,-0.031042634285083758
2025-01-08 10:08:03.082169088,-0.59767354,-0.023694336164955723
2025-01-08 10:08:03.092147968,-0.65300566,-0.01616321558173366
2025-01-08 10:08:03.102174976,-0.63878208,-0.008454459677538662
2025-01-08 10:08:03.112118016,-0.5456996,-0.0005734130040640573
2025-01-08 10:08:03.122148096,-0.44759798,0.007474427104358307
2025-01-08 10:08:03.132205056,-0.42592573,0.015683415298422973
2025-01-08 10:08:03.142177024,-0.50967103,0.024047763118041705
2025-01-08 10:08:03.152242944,-0.68444097,0.03256154402873214
2025-01-08 10:08:03.162196992,-0.87687552,0.04121869858575268
2025-01-08 10:08:03.172173056,-1.02951503,0.05001303972141796
2025-01-08 10:08:03.182332160,-1.14063942,0.05893825815091273
2025-01-08 10:08:03.192168960,-1.22015429,0.06798792789181668
2025-01-08 10:08:03.202213120,-1.29810524,0.07715551189244436
2025-01-08 10:08:03.212102912,-1.41870701,0.0864343677640082
2025-01-08 10:08:03.222138880,-1.57986987,0.09581775361151221
2025-01-08 10:08:03.232222976,-1.71683764,0.10529883395819721
2025-01-08 10:08:03.242268160,-1.78272533,0.11487068575826755
2025-01-08 10:08:03.252339968,-1.78720057,0.12452630449255032
2025-01-08 10:08:03.262285824,-1.75671589,0.1342586103416594
2025-01-08 10:08:03.272492800,-1.72586751,0.1440604544311632
2025-01-08 10:08:03.282355968,-1.73139858,0.15392462514319016
2025-01-08 10:08:03.292220160,-1.77847052,0.16384385448884067
2025-01-08 10:08:03.302278144,-1.85991931,0.17381082453571736
2025-01-08 10:08:03.312292096,-1.96769595,0.18381817388483435
2025-01-08 10:08:03.323187968,-2.08860326,0.19385850419111675
2025-01-08 10:08:03.333057024,-2.18347549,0.20392438672165975
2025-01-08 10:08:03.342356992,-2.23295689,0.2140083689458814
2025-01-08 10:08:03.352327936,-2.26453996,0.2241029811516693
2025-01-08 10:08:03.362369024,-2.32948232,0.2342007430815938
2025-01-08 10:08:03.372318976,-2.75761652,0.2442941705832443
2025-01-08 10:08:03.382409984,-3.92901874,0.25437578226772034
2025-01-08 10:08:03.392980224,-4.61819601,0.26443810617030955
2025-01-08 10:08:03.402425088,-2.5789628,0.274473686407368
2025-01-08 10:08:03.412391936,0.44729537,0.2844750898234271
2025-01-08 10:08:03.422542080,3.32117152,0.2944349126225511
2025-01-08 10:08:03.432529920,6.80145073,0.30434578697798426
2025-01-08 10:08:03.442823936,6.80514383,0.31420038761413777
2025-01-08 10:08:03.452775936,4.36589289,0.3239914383549922
2025-01-08 10:08:03.462671872,3.22120619,0.33371171863301596
2025-01-08 10:08:03.472579072,3.77840948,0.34335406995273166
2025-01-08 10:08:03.482361088,4.71581507,0.3529114023031004
2025-01-08 10:08:03.492402176,4.881042,0.36237670051293774
2025-01-08 10:08:03.502437120,4.47653437,0.37174303054361635
2025-01-08 10:08:03.512322816,3.72517037,0.3810035457133739
2025-01-08 10:08:03.522264832,2.96446443,0.3901514928475921
2025-01-08 10:08:03.532332800,2.50418663,0.39918021834948036
2025-01-08 10:08:03.542417920,2.53256679,0.40808317418566603
2025-01-08 10:08:03.552478976,2.80613852,0.4168539237812654
2025-01-08 10:08:03.562555904,2.78930593,0.4254861478190844
2025-01-08 10:08:03.572512000,2.55311227,0.433973649937686
2025-01-08 10:08:03.582562816,2.30635023,0.44231036232314097
2025-01-08 10:08:03.592571136,2.00464344,0.45049035118938086
2025-01-08 10:08:03.602642176,1.94151103,0.45850782214215685
2025-01-08 10:08:03.612570112,1.98723388,0.46635712542171864
2025-01-08 10:08:03.622601984,1.70844173,0.47403276101942665
2025-01-08 10:08:03.632570880,1.19293249,0.4815293836636248
2025-01-08 10:08:03.642590976,0.68134594,0.4888418076702118
2025-01-08 10:08:03.652556032,0.25713053,0.4959650116534698
2025-01-08 10:08:03.662578176,-0.05327874,0.5028941430928265
2025-01-08 10:08:03.672625920,-0.1979966,0.5096245227513622
2025-01-08 10:08:03.682605056,-0.19682017,0.5161516489419884
2025-01-08 10:08:03.692624128,-0.13014118,0.5224712016373756
2025-01-08 10:08:03.702769152,-0.09052393,0.5285790464198277
2025-01-08 10:08:03.712646912,-0.12153745,0.5344712382674559
2025-01-08 10:08:03.722678016,-0.16044772,0.5401440251731368
2025-01-08 10:08:03.732642048,-0.19064018,0.5455938515928943
2025-01-08 10:08:03.742764032,-0.2118471,0.550817361720491
2025-01-08 10:08:03.752698880,-0.21224841,0.5558114025851711
2025-01-08 10:08:03.762686976,-0.20443781,0.5605730269696467
2025-01-08 10:08:03.772696064,-0.24188772,0.5650994961455863
2025-01-08 10:08:03.782722048,-0.34230164,0.5693882824240165
2025-01-08 10:08:03.792738048,-0.40554184,0.573437071518218
2025-01-08 10:08:03.802810880,-0.39343366,0.5772437647168617
2025-01-08 10:08:03.812804096,-0.31956747,0.5808064808652911
2025-01-08 10:08:03.822717952,-0.24558938,0.58412355815304
2025-01-08 10:08:03.832737024,-0.27222639,0.5871935557058326
2025-01-08 10:08:03.842767872,-0.36131912,0.5900152549804968
2025-01-08 10:08:03.852740096,-0.39346367,0.5925876609613875
2025-01-08 10:08:03.862781952,-0.30842131,0.5949100031571013
2025-01-08 10:08:03.872817152,-0.1393134,0.5969817363964323
2025-01-08 10:08:03.882831104,0.00425464,0.5988025414227032
2025-01-08 10:08:03.892834816,0.06296128,0.6003723252857855
2025-01-08 10:08:03.902846976,0.03041911,0.6016912215312924
2025-01-08 10:08:03.912898048,-0.04612505,0.6027595901866256
2025-01-08 10:08:03.922935040,-0.12664121,0.6035780175437184
2025-01-08 10:08:03.932753920,-0.15865111,0.6041473157385159
2025-01-08 10:08:03.943908864,-0.14242482,0.6044685221274001
2025-01-08 10:08:03.953026048,-0.08018535,0.6045428984609592
2025-01-08 10:08:03.962908928,-0.00098705,0.6043719298556737
2025-01-08 10:08:03.972856064,0.05501336,0.6039573235642773
2025-01-08 10:08:03.982899968,0.11526674,0.6033010075457256
2025-01-08 10:08:03.992905984,0.20225263,0.6024051288358894
2025-01-08 10:08:04.002909952,0.28981882,0.6012720517202632
2025-01-08 10:08:04.012995072,0.30220771,0.5999043557101602
2025-01-08 10:08:04.023013120,0.27692068,0.5983048333240383
2025-01-08 10:08:04.032867072,0.306068,0.5964764876757744
2025-01-08 10:08:04.042960896,0.38788736,0.5944225298718864
2025-01-08 10:08:04.053101056,0.47729051,0.5921463762198594
2025-01-08 10:08:04.063095040,0.6002928,0.589651645249915
2025-01-08 10:08:04.073000960,0.80927306,0.58694215455272
2025-01-08 10:08:04.085206016,1.06351495,0.5840219174357094
2025-01-08 10:08:04.092946944,1.25982392,0.5808951394008413
2025-01-08 10:08:04.103037184,1.30162549,0.5775662144467834
2025-01-08 10:08:04.113012992,1.15863037,0.5740397211986769
2025-01-08 10:08:04.122966016,0.93809068,0.5703204188687787
2025-01-08 10:08:04.135086080,0.73393506,0.5664132430514435
2025-01-08 10:08:04.143034880,0.63428044,0.562323301356046
2025-01-08 10:08:04.152957952,0.70456529,0.5580558688816025
2025-01-08 10:08:04.162860032,0.88787657,0.5536163835369808
2025-01-08 10:08:04.172832000,1.08104491,0.5490104412107399
2025-01-08 10:08:04.182900992,1.22713041,0.5442437907947694
2025-01-08 10:08:04.192892928,1.28438175,0.5393223290660327
2025-01-08 10:08:04.203023872,1.26943529,0.5342520954308513
2025-01-08 10:08:04.213126912,1.15822244,0.5290392665362866
2025-01-08 10:08:04.223150080,1.00656629,0.5236901507533024
2025-01-08 10:08:04.233061120,0.87095869,0.5182111825365028
2025-01-08 10:08:04.243077888,0.75947833,0.512608916665362
2025-01-08 10:08:04.253024000,0.68012112,0.5068900223719599
2025-01-08 10:08:04.263008000,0.71113539,0.5010612773603523
2025-01-08 10:08:04.273068032,0.87015903,0.49512956172279543
2025-01-08 10:08:04.283116032,1.06892478,0.4891018517581508
2025-01-08 10:08:04.293123072,1.14963031,0.4829852136978721
2025-01-08 10:08:04.303148032,1.09456241,0.47678679734507934
2025-01-08 10:08:04.313160960,1.00314403,0.4705138296322898
2025-01-08 10:08:04.323147008,0.94870245,0.464173608103466
2025-01-08 10:08:04.333152000,0.89700615,0.4577734943260996
2025-01-08 10:08:04.343172096,0.82360274,0.4513209072391292
2025-01-08 10:08:04.353147136,0.77044189,0.4448233164425395
2025-01-08 10:08:04.363259136,0.78377128,0.4382882354345527
2025-01-08 10:08:04.373159936,0.84950954,0.4317232148023725
2025-01-08 10:08:04.383192064,0.89226341,0.4251358353724855
2025-01-08 10:08:04.393230080,0.86447203,0.41853370132656526
2025-01-08 10:08:04.403220992,0.82442844,0.41192443328906175
2025-01-08 10:08:04.413320960,0.79642284,0.405315661392585
2025-01-08 10:08:04.423495936,0.75730693,0.39871501832722117
2025-01-08 10:08:04.433351936,0.70275712,0.39213013237993066
2025-01-08 10:08:04.443486976,0.67754906,0.3855686204702016
2025-01-08 10:08:04.453707008,0.7042371,0.37903808118812987
2025-01-08 10:08:04.463430912,0.72880876,0.3725460878411084
2025-01-08 10:08:04.473648128,0.76577616,0.36610018151529666
2025-01-08 10:08:04.483182848,0.76839852,0.3597078641580452
2025-01-08 10:08:04.493299968,0.71617556,0.35337659168742086
2025-01-08 10:08:04.503117056,0.67534441,0.3471137671349756
2025-01-08 10:08:04.513142016,0.652197,0.3409267338278634
2025-01-08 10:08:04.523171072,0.64452767,0.33482276861639
2025-01-08 10:08:04.533217792,0.65304607,0.3288090751530372
2025-01-08 10:08:04.543399936,0.65467757,0.3228927772289709
2025-01-08 10:08:04.553512960,0.63794911,0.3170809121739864
2025-01-08 10:08:04.563715840,0.62094957,0.31138042432580165
2025-01-08 10:08:04.573551872,0.61969006,0.3057981585745511
2025-01-08 10:08:04.583302144,0.60090351,0.30034085398826366
2025-01-08 10:08:04.593303808,0.53194863,0.29501513752505326
2025-01-08 10:08:04.603343872,0.42146784,0.2898275178376702
2025-01-08 10:08:04.613431808,0.3385821,0.2847843791759859
2025-01-08 10:08:04.624728832,0.34621748,0.2798919753929058
2025-01-08 10:08:04.633276928,0.35949928,0.27515642405911234
2025-01-08 10:08:04.643438080,0.29787007,0.27058370069195486
2025-01-08 10:08:04.653431040,0.19199039,0.26617963310370046
2025-01-08 10:08:04.663578880,0.08404423,0.2619498958742649
2025-01-08 10:08:04.673356032,-0.01109491,0.2579000049534325
2025-01-08 10:08:04.683404800,-0.04408829,0.25403531239746674
2025-01-08 10:08:04.693608960,-0.00731568,0.2503610012448966
2025-01-08 10:08:04.703393024,0.09240793,0.2468820805361503
2025-01-08 10:08:04.713361920,0.22149634,0.24360338048157487
2025-01-08 10:08:04.723386880,0.35873899,0.24052954778226585
2025-01-08 10:08:04.733474048,0.46131328,0.23766504110798978
2025-01-08 10:08:04.743526912,0.46994939,0.2350141267363551
2025-01-08 10:08:04.753519104,0.36052859,0.23258087435724248
2025-01-08 10:08:04.763542016,0.15766248,0.23036915304636804
2025-01-08 10:08:04.773603840,-0.01722527,0.22838262741170492
2025-01-08 10:08:04.783556864,-0.05191234,0.22662475391634218
2025-01-08 10:08:04.793613824,-0.00719154,0.2250987773812016
2025-01-08 10:08:04.803544064,-0.01436412,0.22380772767088836
2025-01-08 10:08:04.813534976,-0.11036068,0.22275441656578102
2025-01-08 10:08:04.823606016,-0.24657261,0.22194143482331544
2025-01-08 10:08:04.833602048,-0.34865314,0.22137114943124678
2025-01-08 10:08:04.843588096,-0.3420139,0.22104570105551086
2025-01-08 10:08:04.853605120,-0.29801279,0.22096700168513544
2025-01-08 10:08:04.863571968,-0.29295295,0.22113673247648213
2025-01-08 10:08:04.873570816,-0.35561442,0.22155634179892714
2025-01-08 10:08:04.883618048,-0.42158073,0.22222704348391076
2025-01-08 10:08:04.893616896,-0.42150581,0.2231498152791127
2025-01-08 10:08:04.903606016,-0.36513603,0.2243253975093298
2025-01-08 10:08:04.913622016,-0.31852853,0.22575429194545119
2025-01-08 10:08:04.923675904,-0.27934813,0.22743676088274792
2025-01-08 10:08:04.933878784,-0.23072338,0.22937282642950738
2025-01-08 10:08:04.943682048,-0.22917634,0.23156227000686638
2025-01-08 10:08:04.953679104,-0.26711333,0.2340046320604984
2025-01-08 10:08:04.963676928,-0.32848173,0.23669921198464589
2025-01-08 10:08:04.973760000,-0.41652387,0.23964506825878049
2025-01-08 10:08:04.983719168,-0.51151592,0.24284101879700684
2025-01-08 10:08:04.993705984,-0.6082136,0.24628564151012566
2025-01-08 10:08:05.003709952,-0.72069955,0.24997727508009424
2025-01-08 10:08:05.013748992,-0.87209159,0.2539140199464312
2025-01-08 10:08:05.023770112,-1.04321432,0.25809373950393066
2025-01-08 10:08:05.033680896,-1.22258782,0.2625140615108582
2025-01-08 10:08:05.043741952,-1.39124191,0.2671723797066272
2025-01-08 10:08:05.053736960,-1.53944707,0.27206585563775754
2025-01-08 10:08:05.063757056,-1.65313721,0.2771914206907459
2025-01-08 10:08:05.073731072,-1.73219562,0.28254577833028816
2025-01-08 10:08:05.083805952,-1.79066205,0.2881254065411153
2025-01-08 10:08:05.093782016,-1.84598887,0.29392656047152727
2025-01-08 10:08:05.103816960,-1.83319032,0.2999452752765269
2025-01-08 10:08:05.114023936,-1.72039413,0.30617736915828264
2025-01-08 10:08:05.124043008,-1.56914449,0.31261844660147503
2025-01-08 10:08:05.133840128,-1.466923,0.3192639018009057
2025-01-08 10:08:05.143846144,-1.3129847,0.3261089222785841
2025-01-08 10:08:05.153776896,-0.93860954,0.33314849268733115
2025-01-08 10:08:05.163856128,-0.43500704,0.34037739879778106
2025-01-08 10:08:05.173872896,0.38420695,0.3477902316654957
2025-01-08 10:08:05.183804928,2.20835471,0.35538139197474694
2025-01-08 10:08:05.193957120,5.43824005,0.3631450945553658
2025-01-08 10:08:05.203912960,8.44527531,0.37107537306890276
2025-01-08 10:08:05.213903872,7.8091774,0.3791660848601923
2025-01-08 10:08:05.223911936,4.90052032,0.38741091597026994
2025-01-08 10:08:05.233964800,4.10186434,0.39580338630644096
2025-01-08 10:08:05.244036864,4.16878414,0.4043368549651654
2025-01-08 10:08:05.253905920,3.69541669,0.4130045257032821
2025-01-08 10:08:05.263917824,2.72137761,0.42179945255296597
2025-01-08 10:08:05.274012928,1.97804689,0.43071454557567906
2025-01-08 10:08:05.283912960,1.69830918,0.43974257675025596
2025-01-08 10:08:05.293964032,1.56968856,0.44887618599013834
2025-01-08 10:08:05.303963904,1.32164669,0.45810788728466234
2025-01-08 10:08:05.313947904,0.95891339,0.4674300749591854
2025-01-08 10:08:05.324003840,0.61911148,0.4768350300487322
2025-01-08 10:08:05.333993984,0.37647277,0.4863149267797429
2025-01-08 10:08:05.344439040,0.26044333,0.4958618391543964
2025-01-08 10:08:05.353987072,0.22302371,0.5054677476319005
2025-01-08 10:08:05.363936000,0.19410628,0.5151245459010406
2025-01-08 10:08:05.373976064,0.1596939,0.5248240477382058
2025-01-08 10:08:05.384059904,0.1227929,0.5345579939450196
2025-01-08 10:08:05.394028800,0.08806819,0.544318059359643
2025-01-08 10:08:05.404210176,0.04984176,0.5540958599357353
2025-01-08 10:08:05.414194176,-0.00915992,0.5638829598830046
2025-01-08 10:08:05.424236032,-0.10345221,0.5736708788632149
2025-01-08 10:08:05.434209024,-0.23540735,0.5834510992354699
2025-01-08 10:08:05.444130816,-0.42895567,0.5932150733445395
2025-01-08 10:08:05.454238976,-0.62215883,0.6029542308459561
2025-01-08 10:08:05.464263936,-0.73751128,0.6126599860615752
2025-01-08 10:08:05.474121216,-0.77415681,0.6223237453592514
2025-01-08 10:08:05.484215040,-0.78749418,0.6319369145502696
2025-01-08 10:08:05.494188032,-0.84527326,0.6414909062981422
2025-01-08 10:08:05.504065024,-0.98845589,0.6509771475323659
2025-01-08 10:08:05.514089216,-1.17865634,0.6603870868607349
2025-01-08 10:08:05.524173056,-1.35637128,0.6697122019737874
2025-01-08 10:08:05.534198016,-1.51197839,0.6789440070349783
2025-01-08 10:08:05.544052992,-1.67524219,0.6880740600501682
2025-01-08 10:08:05.554543104,-1.84170294,0.6970939702100426
2025-01-08 10:08:05.564137984,-1.95892048,0.7059954051990788
2025-01-08 10:08:05.574062080,-2.00154972,0.7147700984647197
2025-01-08 10:08:05.584115968,-1.96369016,0.7234098564404297
2025-01-08 10:08:05.594108160,-1.87080193,0.7319065657163494
2025-01-08 10:08:05.604135936,-1.74135172,0.7402522001513082
2025-01-08 10:08:05.614108928,-1.61385047,0.7484388279199917
2025-01-08 10:08:05.624293120,-1.52280843,0.7564586184891237
2025-01-08 10:08:05.634226176,-1.38526464,0.764303849516572
2025-01-08 10:08:05.644208896,-1.20356679,0.7719669136673498
2025-01-08 10:08:05.654301952,-0.94779789,0.7794403253405571
2025-01-08 10:08:05.664308992,-0.50784093,0.7867167273013718
2025-01-08 10:08:05.674235136,0.23228365,0.7937888972122868
2025-01-08 10:08:05.684228864,1.19899213,0.8006497540578653
2025-01-08 10:08:05.694266112,2.21491957,0.8072923644573764
2025-01-08 10:08:05.705081856,3.23411202,0.8137099488597689
2025-01-08 10:08:05.714326016,3.92788672,0.8198958876155369
2025-01-08 10:08:05.724702976,4.13883638,0.8258437269201312
2025-01-08 10:08:05.734390016,4.19183254,0.8315471846236833
2025-01-08 10:08:05.744322048,4.29900503,0.837000155901915
2025-01-08 10:08:05.754658816,4.46790886,0.8421967187832263
2025-01-08 10:08:05.764431104,4.44819164,0.8471311395270763
2025-01-08 10:08:05.774341120,4.14697838,0.8517978778488918
2025-01-08 10:08:05.784396032,3.73236179,0.8561915919868734
2025-01-08 10:08:05.794508032,3.4018116,0.8603071436061991
2025-01-08 10:08:05.804359936,3.15771389,0.8641396025362624
2025-01-08 10:08:05.814352128,2.93138337,0.8676842513367276
2025-01-08 10:08:05.824423936,2.68288803,0.8709365896883206
2025-01-08 10:08:05.834413056,2.44727325,0.8738923386044366
2025-01-08 10:08:05.844430080,2.1810267,0.87654744445978
2025-01-08 10:08:05.854563840,1.83795118,0.8788980828324258
2025-01-08 10:08:05.864475904,1.51005864,0.8809406621558347
2025-01-08 10:08:05.874424832,1.24755645,0.8826718271775286
2025-01-08 10:08:05.884481024,1.0627265,0.8840884622212841
2025-01-08 10:08:05.894427904,0.96324587,0.8851876942498884
2025-01-08 10:08:05.904448000,0.97538501,0.8859668957256461
2025-01-08 10:08:05.914472192,1.04197729,0.8864236872660262
2025-01-08 10:08:05.924474880,1.09306872,0.8865559400919901
2025-01-08 10:08:05.934458112,1.07958031,0.8863617782667349
2025-01-08 10:08:05.944508928,0.98740745,0.8858395807227523
2025-01-08 10:08:05.954513920,0.82620311,0.8849879830752984
2025-01-08 10:08:05.964595200,0.62340689,0.8838058792205399
2025-01-08 10:08:05.974519040,0.42663667,0.8822924227168351
2025-01-08 10:08:05.984502016,0.30077037,0.8804470279477878
2025-01-08 10:08:05.994512128,0.2813428,0.8782693710659089
2025-01-08 10:08:06.004548096,0.33814251,0.8757593907158924
2025-01-08 10:08:06.014537984,0.39204526,0.8729172885367235
2025-01-08 10:08:06.024528128,0.39297891,0.8697435294420028
2025-01-08 10:08:06.034554112,0.34500211,0.8662388416780843
2025-01-08 10:08:06.044590848,0.28052393,0.8624042166597939
2025-01-08 10:08:06.054642944,0.22835182,0.8582409085837072
2025-01-08 10:08:06.064663808,0.20010397,0.8537504338191363
2025-01-08 10:08:06.074554880,0.21684209,0.8489345700771895
2025-01-08 10:08:06.084975872,0.28939444,0.8437953553584335
2025-01-08 10:08:06.094675968,0.37569955,0.8383350866799016
2025-01-08 10:08:06.104645888,0.43714324,0.832556318582365
2025-01-08 10:08:06.114646784,0.48279959,0.8264618614189859
2025-01-08 10:08:06.124581120,0.53990841,0.8200547794266487
2025-01-08 10:08:06.134555136,0.60145152,0.8133383885814621
2025-01-08 10:08:06.144545024,0.64572871,0.8063162542401062
2025-01-08 10:08:06.154729984,0.68745804,0.7989921885688869
2025-01-08 10:08:06.164630016,0.69034964,0.7913702477625387
2025-01-08 10:08:06.175302912,0.6358633,0.7834547290550068
2025-01-08 10:08:06.184717824,0.54293841,0.7752501675246064
2025-01-08 10:08:06.194672128,0.44436383,0.766761332696153
2025-01-08 10:08:06.204734976,0.37349033,0.7579932249428147
2025-01-08 10:08:06.214711040,0.31922168,0.7489510716906238
2025-01-08 10:08:06.224817920,0.2926327,0.7396403234287494
2025-01-08 10:08:06.234787072,0.3033489,0.7300666495288072
2025-01-08 10:08:06.244628992,0.28460234,0.7202359338766391
2025-01-08 10:08:06.254766080,0.19834518,0.7101542703201678
2025-01-08 10:08:06.264753152,0.10182363,0.6998279579370831
2025-01-08 10:08:06.274672896,0.04921418,0.6892634961262806
2025-01-08 10:08:06.284961024,0.03298295,0.6784675795271193
2025-01-08 10:08:06.294802944,0.01712024,0.6674470927707193
2025-01-08 10:08:06.304827904,0.00941157,0.6562091050676665
2025-01-08 10:08:06.314820096,0.03346169,0.6447608646366291
2025-01-08 10:08:06.324808960,0.07217556,0.6331097929785378
2025-01-08 10:08:06.334824192,0.14825916,0.6212634790011062
2025-01-08 10:08:06.344922112,0.30635202,0.6092296729986051
2025-01-08 10:08:06.355136000,0.51756644,0.5970162804919313
2025-01-08 10:08:06.364818944,0.72963029,0.5846313559341267
2025-01-08 10:08:06.376167936,0.86435699,0.5720830962866303
2025-01-08 10:08:06.385037056,0.84816468,0.5593798344716494
2025-01-08 10:08:06.394903808,0.72916305,0.5465300327061543
2025-01-08 10:08:06.405096960,0.64686877,0.5335422757230963
2025-01-08 10:08:06.415036928,0.65591931,0.5204252638855523
2025-01-08 10:08:06.425036032,0.71129274,0.5071878061995944
2025-01-08 10:08:06.435026944,0.75544,0.49383881323176565
2025-01-08 10:08:06.444986112,0.75080884,0.48038728993713725
2025-01-08 10:08:06.455019008,0.70127714,0.46684232840399037
2025-01-08 10:08:06.465015808,0.66704166,0.4532131005212495
2025-01-08 10:08:06.474937856,0.69058877,0.43950885057485456
2025-01-08 10:08:06.485039872,0.75778002,0.4257388877793292
2025-01-08 10:08:06.494849024,0.8092705,0.41191257875085485
2025-01-08 10:08:06.504900096,0.81497431,0.39803933992821516
2025-01-08 10:08:06.514919936,0.77772015,0.38412862994802444
2025-01-08 10:08:06.524961024,0.71858752,0.370189941980689
2025-01-08 10:08:06.534985984,0.66802788,0.3562327960335938
2025-01-08 10:08:06.544965888,0.62138927,0.34226673122803036
2025-01-08 10:08:06.554972928,0.54897302,0.32830129805641134
2025-01-08 10:08:06.565032960,0.46645617,0.31434605062633325
2025-01-08 10:08:06.575025920,0.41242212,0.3004105388980639
2025-01-08 10:08:06.585171968,0.4043017,0.2865043009220384
2025-01-08 10:08:06.595005952,0.4278574,0.27263685508294827
2025-01-08 10:08:06.605041152,0.43501896,0.25881769235700774
2025-01-08 10:08:06.615011840,0.40737385,0.24505626858896773
2025-01-08 10:08:06.625061888,0.38172221,0.231361996795438
2025-01-08 10:08:06.635083008,0.38368773,0.21774423950105196
2025-01-08 10:08:06.645092864,0.39401263,0.204212301113987
2025-01-08 10:08:06.655115008,0.39219213,0.19077542034731892
2025-01-08 10:08:06.665123840,0.39192361,0.1774427626926518
2025-01-08 10:08:06.675106048,0.38079011,0.16422341295242143
2025-01-08 10:08:06.685203200,0.35862207,0.1511263678372242
2025-01-08 10:08:06.695104000,0.34374219,0.1381605286344649
2025-01-08 10:08:06.705118976,0.31935269,0.12533469395456176
2025-01-08 10:08:06.715102976,0.30389988,0.11265755256087888
2025-01-08 10:08:06.725150208,0.30858696,0.10013767628948994
2025-01-08 10:08:06.735172864,0.31883031,0.0877835130647951
2025-01-08 10:08:06.745181952,0.33524513,0.07560338001694122
2025-01-08 10:08:06.755219968,0.34054643,0.06360545670690015
2025-01-08 10:08:06.765191936,0.32477891,0.05179777846497755
2025-01-08 10:08:06.775200000,0.28835917,0.04018822984842111
2025-01-08 10:08:06.786051072,0.24625695,0.028784538223705455
2025-01-08 10:08:06.795236096,0.2165615,0.01759426747895217
2025-01-08 10:08:06.805165056,0.19621843,0.006624811871849892
2025-01-08 10:08:06.815149056,0.19390357,-0.00411660998169224
2025-01-08 10:08:06.826216960,0.2156629,-0.014622960973031517
2025-01-08 10:08:06.835179008,0.23226064,-0.024887391215423917
2025-01-08 10:08:06.845160960,0.20989484,-0.03490324360293029
2025-01-08 10:08:06.855271936,0.16762257,-0.04466405920886313
2025-01-08 10:08:06.865235200,0.11130577,-0.054163582519168516
2025-01-08 10:08:06.875297024,0.06366634,-0.06339576649629013
2025-01-08 10:08:06.885263872,0.02632141,-0.07235477746919347
2025-01-08 10:08:06.895273984,-0.00745291,-0.08103499984538966
2025-01-08 10:08:06.905299968,-0.05185318,-0.08943104064093739
2025-01-08 10:08:06.915286016,-0.11775684,-0.09753773382456897
2025-01-08 10:08:06.925369856,-0.16861266,-0.10535014447223447
2025-01-08 10:08:06.935326208,-0.20869595,-0.11286357272852864
2025-01-08 10:08:06.945373184,-0.24752384,-0.12007355757162085
2025-01-08 10:08:06.955588096,-0.28102225,-0.12697588037848806
2025-01-08 10:08:06.965341184,-0.30372036,-0.13356656828740787
2025-01-08 10:08:06.975325184,-0.32944626,-0.13984189735485525
2025-01-08 10:08:06.985338880,-0.35474813,-0.14579839550410947
2025-01-08 10:08:06.995412992,-0.36897862,-0.15143284526306847
2025-01-08 10:08:07.005464064,-0.38743532,-0.15674228628893683
2025-01-08 10:08:07.015397120,-0.40433544,-0.1617240176776459
2025-01-08 10:08:07.025415936,-0.40465915,-0.1663756000560369
2025-01-08 10:08:07.035440896,-0.38141763,-0.17069485745504018
2025-01-08 10:08:07.045455872,-0.34325671,-0.1746798789622514
2025-01-08 10:08:07.055373056,-0.31098145,-0.17832902015251437
2025-01-08 10:08:07.065401088,-0.30142897,-0.18164090429529062
2025-01-08 10:08:07.075397120,-0.32253605,-0.18461442333780698
2025-01-08 10:08:07.085433856,-0.33981252,-0.18724873866314443
2025-01-08 10:08:07.095792896,-0.33898485,-0.18954328162264303
2025-01-08 10:08:07.105613056,-0.3295517,-0.1914977538421732
2025-01-08 10:08:07.115500800,-0.30269784,-0.19311212730203467
2025-01-08 10:08:07.125526016,-0.27975935,-0.19438664419042184
2025-01-08 10:08:07.135490816,-0.27880883,-0.19532181653060354
2025-01-08 10:08:07.145466112,-0.27502,-0.1959184255821446
2025-01-08 10:08:07.155468032,-0.25822449,-0.19617752101670324
2025-01-08 10:08:07.165481984,-0.22935277,-0.1961004198691226
2025-01-08 10:08:07.175465984,-0.18515337,-0.1956887052647303
2025-01-08 10:08:07.185502976,-0.11501241,-0.19494422492395116
2025-01-08 10:08:07.195502080,-0.00595289,-0.19386908944553197
2025-01-08 10:08:07.205630976,0.11104876,-0.19246567036986073
2025-01-08 10:08:07.215552000,0.22763497,-0.190736598024059
2025-01-08 10:08:07.225549824,0.3575604,-0.18868475915070315
2025-01-08 10:08:07.235588096,0.4715904,-0.1863132943222281
2025-01-08 10:08:07.245532160,0.55713177,-0.18362559514323826
2025-01-08 10:08:07.255540992,0.6575402,-0.18062530124314252
2025-01-08 10:08:07.265582080,0.75536418,-0.17731629706170082
2025-01-08 10:08:07.275578112,0.82001871,-0.17370270843025537
2025-01-08 10:08:07.285604096,0.80897832,-0.16978889895158888
2025-01-08 10:08:07.295607040,0.70908231,-0.1655794661815275
2025-01-08 10:08:07.305757952,0.57131904,-0.16107923761557327
2025-01-08 10:08:07.315607040,0.44640255,-0.15629326648402347
2025-01-08 10:08:07.325632000,0.33338922,-0.1512268273591896
2025-01-08 10:08:07.335653120,0.23200023,-0.14588541157849988
2025-01-08 10:08:07.345644032,0.14099801,-0.14027472248741596
2025-01-08 10:08:07.355660032,0.06182373,-0.13440067050625915
2025-01-08 10:08:07.365740032,-0.02305913,-0.12826936802518327
2025-01-08 10:08:07.375657984,-0.11989057,-0.12188712413168516
2025-01-08 10:08:07.385776896,-0.18307102,-0.11526043917518242
2025-01-08 10:08:07.395857152,-0.18507427,-0.10839599917332995
2025-01-08 10:08:07.405940992,-0.16817051,-0.10130067006488026
2025-01-08 10:08:07.415810048,-0.18349022,-0.09398149181402725
2025-01-08 10:08:07.426320128,-0.24632114,-0.08644567237129326
2025-01-08 10:08:07.436034816,-0.32571447,-0.07870058149615118
2025-01-08 10:08:07.445782784,-0.3556453,-0.07075374444668062
2025-01-08 10:08:07.455746816,-0.2923153,-0.06261283554168248
2025-01-08 10:08:07.465792768,-0.1605382,-0.05428567160077172
2025-01-08 10:08:07.476846080,-0.08049476,-0.04578020526808589
2025-01-08 10:08:07.485824000,-0.10981649,-0.03710451822533528
2025-01-08 10:08:07.495732992,-0.22245312,-0.028266814300019785
2025-01-08 10:08:07.505769984,-0.31175709,-0.01927541247472635
2025-01-08 10:08:07.515749888,-0.37606335,-0.010138739803504257
2025-01-08 10:08:07.525794048,-0.45887291,-0.0008653242413940133
2025-01-08 10:08:07.535834112,-0.55497831,0.008536212606739698
2025-01-08 10:08:07.545798144,-0.68285084,0.018057162811853097
2025-01-08 10:08:07.555744768,-0.83459336,0.027688739514565488
2025-01-08 10:08:07.565851904,-1.01281714,0.03742208438086063
2025-01-08 10:08:07.575825920,-1.21902406,0.04724827511325334
2025-01-08 10:08:07.585844992,-1.40365326,0.05715833301099085
2025-01-08 10:08:07.596022016,-1.5568018,0.06714323057280257
2025-01-08 10:08:07.605976064,-1.70030677,0.07719389913569338
2025-01-08 10:08:07.615927040,-1.83784103,0.08730123654322981
2025-01-08 10:08:07.625908992,-1.96509862,0.09745611483675802
2025-01-08 10:08:07.635878144,-2.07625628,0.10764938796296455
2025-01-08 10:08:07.645918976,-2.13908887,0.1178718994911829
2025-01-08 10:08:07.655867136,-2.14707398,0.12811449033384126
2025-01-08 10:08:07.665901056,-2.13712215,0.13836800646344483
2025-01-08 10:08:07.675874048,-2.1460309,0.14862330661948944
2025-01-08 10:08:07.685914112,-2.2026484,0.15887126999871795
2025-01-08 10:08:07.695930112,-2.30396557,0.16910280392213953
2025-01-08 10:08:07.705924096,-2.41367745,0.1793088514722611
2025-01-08 10:08:07.715964928,-2.50603724,0.18948039909400172
2025-01-08 10:08:07.726023936,-2.62594748,0.19960848415279575
2025-01-08 10:08:07.735987968,-2.72806907,0.2096842024434304
2025-01-08 10:08:07.745960960,-2.68702435,0.2196987156432031
2025-01-08 10:08:07.755960832,-2.73396945,0.22964325870304103
2025-01-08 10:08:07.765986816,-3.15263653,0.23950914717026964
2025-01-08 10:08:07.776029184,-3.12037277,0.24928778443678895
2025-01-08 10:08:07.785932032,-1.07955348,0.2589706689064738
2025-01-08 10:08:07.796020992,1.8489337,0.26854940107568953
2025-01-08 10:08:07.806021888,5.58740807,0.27801569052089065
2025-01-08 10:08:07.816137984,8.23599529,0.28736136278735
2025-01-08 10:08:07.826078976,6.22895288,0.2965783661731551
2025-01-08 10:08:07.836054016,3.93126178,0.30565877840269945
2025-01-08 10:08:07.846059008,3.69975853,0.31459481318399285
2025-01-08 10:08:07.856054016,4.25332451,0.32337882664421685
2025-01-08 10:08:07.866022144,4.1145649,0.3320033236380595
2025-01-08 10:08:07.876171008,3.34017348,0.3404609639234724
2025-01-08 10:08:07.886109952,2.51067066,0.34874456819961186
2025-01-08 10:08:07.896141056,1.79127741,0.35684712400184376
2025-01-08 10:08:07.906208000,1.32229424,0.36476179144881843
2025-01-08 10:08:07.916590080,1.09274638,0.37248190883675103
2025-01-08 10:08:07.926173952,0.83909965,0.3800009980761751
2025-01-08 10:08:07.936103168,0.50647742,0.38731276996657527
2025-01-08 10:08:07.946180096,0.16224349,0.3944111293044475
2025-01-08 10:08:07.956110080,-0.07133263,0.40129017982047693
2025-01-08 10:08:07.966156032,-0.10024697,0.40794422894167914
2025-01-08 10:08:07.976138240,0.04260707,0.41436779237449506
2025-01-08 10:08:07.986226944,0.22816849,0.420555598504991
2025-01-08 10:08:07.996221184,0.34235287,0.42650259261247514
2025-01-08 10:08:08.006205952,0.3540785,0.43220394089299996
2025-01-08 10:08:08.016100864,0.28213555,0.4376550342893899
2025-01-08 10:08:08.026184960,0.20972542,0.4428514921245989
2025-01-08 10:08:08.036890112,0.2363849,0.4477891655353768
2025-01-08 10:08:08.046209024,0.34181917,0.45246414070339386
2025-01-08 10:08:08.056512000,0.4270843,0.4568727418811517
2025-01-08 10:08:08.066924032,0.43125913,0.4610115342101839
2025-01-08 10:08:08.076147200,0.36784673,0.4648773263292379
2025-01-08 10:08:08.086235136,0.289507,0.4684671727702984
2025-01-08 10:08:08.096268032,0.2308625,0.47177837614051565
2025-01-08 10:08:08.106259968,0.19718239,0.4748084890882677
2025-01-08 10:08:08.116169984,0.16188195,0.4775553160517916
2025-01-08 10:08:08.126104064,0.19925237,0.4800169147889941
2025-01-08 10:08:08.136164864,0.3420215,0.48219159768725045
2025-01-08 10:08:08.146202112,0.49604809,0.48407793285218526
2025-01-08 10:08:08.156829952,0.6031723,0.485674744974627
2025-01-08 10:08:08.166295040,0.6367321,0.48698111597511573
2025-01-08 10:08:08.176079872,0.61381763,0.4879963854255372
2025-01-08 10:08:08.186356992,0.55237997,0.4887201507476533
2025-01-08 10:08:08.196297984,0.51180995,0.4891522671884879
2025-01-08 10:08:08.206461952,0.55035341,0.48929284757272445
2025-01-08 10:08:08.216361984,0.69129223,0.4891422618324609
2025-01-08 10:08:08.226397952,0.85611802,0.4887011363148662
2025-01-08 10:08:08.236382976,0.94042295,0.48797035286846807
2025-01-08 10:08:08.246469888,0.851704,0.48695104770900083
2025-01-08 10:08:08.256386048,0.70197123,0.4856446100659284
2025-01-08 10:08:08.266433024,0.59655029,0.4840526806109463
2025-01-08 10:08:08.276428032,0.48468417,0.482177149669963
2025-01-08 10:08:08.286351872,0.37011576,0.4800201552202372
2025-01-08 10:08:08.296390912,0.27791601,0.4775840806745451
2025-01-08 10:08:08.306466048,0.25018513,0.47487155245442514
2025-01-08 10:08:08.316508928,0.30040789,0.4718854373547406
2025-01-08 10:08:08.326385920,0.36018723,0.46862883970197194
2025-01-08 10:08:08.336442880,0.33007014,0.4651050983088353
2025-01-08 10:08:08.346462976,0.20413357,0.4613177832279947
2025-01-08 10:08:08.356442880,0.11521107,0.45727069230781636
2025-01-08 10:08:08.366537984,0.21411961,0.4529678475532738
2025-01-08 10:08:08.376523008,0.46184623,0.44841349129529273
2025-01-08 10:08:08.386840064,0.71138567,0.4436120821719797
2025-01-08 10:08:08.396686080,0.94299704,0.4385682909253466
2025-01-08 10:08:08.406672896,1.13757789,0.4332869960173027
2025-01-08 10:08:08.416614144,1.2670815,0.42777327906883666
2025-01-08 10:08:08.426619904,1.31287479,0.42203242012646897
2025-01-08 10:08:08.436701184,1.23086035,0.4160698927602011
2025-01-08 10:08:08.446708992,1.08992648,0.40989135899733276
2025-01-08 10:08:08.456612096,1.00654984,0.40350266409666047
2025-01-08 10:08:08.466594048,1.01522422,0.396909831167709
2025-01-08 10:08:08.476838144,1.05824161,0.3901190556397779
2025-01-08 10:08:08.486481920,1.08273125,0.38313669958571583
2025-01-08 10:08:08.496527872,1.10111964,0.3759692859054619
2025-01-08 10:08:08.506618880,1.16080689,0.36862349237450853
2025-01-08 10:08:08.516630784,1.24902844,0.36110614556256143
2025-01-08 10:08:08.526669056,1.28781223,0.35342421462778045
2025-01-08 10:08:08.536769024,1.21172845,0.34558480499209226
2025-01-08 10:08:08.546740992,1.08101416,0.33759515190316647
2025-01-08 10:08:08.556591104,0.98187423,0.3294626138887449
2025-01-08 10:08:08.566667008,0.92107379,0.3211946661091056
2025-01-08 10:08:08.576617984,0.86852956,0.3127988936135269
2025-01-08 10:08:08.586689024,0.82380545,0.3042829845067029
2025-01-08 10:08:08.596685056,0.8002885,0.29565472303113405
2025-01-08 10:08:08.606703872,0.78675151,0.28692198257158846
2025-01-08 10:08:08.616727040,0.76729316,0.2780927185877991
2025-01-08 10:08:08.626755072,0.70278853,0.26917496148161413
2025-01-08 10:08:08.636751872,0.59259933,0.2601768094048828
2025-01-08 10:08:08.648406016,0.48500645,0.2511064210143978
2025-01-08 10:08:08.656728064,0.40127152,0.24197200818027068
2025-01-08 10:08:08.666721024,0.35654223,0.23278182865414168
2025-01-08 10:08:08.676836864,0.3502593,0.22354417870367185
2025-01-08 10:08:08.686851072,0.33124357,0.21426738571977957
2025-01-08 10:08:08.696830976,0.29544562,0.20495980080311701
2025-01-08 10:08:08.706721024,0.24399859,0.1956297913362853
2025-01-08 10:08:08.716926208,0.19892174,0.18628573354830935
2025-01-08 10:08:08.726937088,0.18109149,0.1769360050778875
2025-01-08 10:08:08.736805888,0.16990769,0.16758897754193702
2025-01-08 10:08:08.746816000,0.15783089,0.15825300911594414
2025-01-08 10:08:08.756670976,0.15275449,0.14893643713261875
2025-01-08 10:08:08.766946048,0.14044732,0.1396475707053313
2025-01-08 10:08:08.776866816,0.10967523,0.13039468338278995
2025-01-08 10:08:08.786818048,0.0694629,0.12118600584138216
2025-01-08 10:08:08.796844032,0.03957754,0.11202971862157123
2025-01-08 10:08:08.806870016,0.01917976,0.10293394491469723
2025-01-08 10:08:08.816915968,0.00817001,0.09390674340648729
2025-01-08 10:08:08.826915072,0.00494158,0.08495610118352273
2025-01-08 10:08:08.836848896,-0.00212651,0.0760899267088599
2025-01-08 10:08:08.846915840,-0.01653922,0.06731604287293276
2025-01-08 10:08:08.856882176,-0.0317362,0.05864218012580151
2025-01-08 10:08:08.866893056,-0.04414004,0.050075969696735695
2025-01-08 10:08:08.876910080,-0.06404561,0.041624936907040666
2025-01-08 10:08:08.886888960,-0.09453505,0.033296494581955986
2025-01-08 10:08:08.896882176,-0.15140039,0.025097936567361135
2025-01-08 10:08:08.906930944,-0.21671242,0.01703643135693286
2025-01-08 10:08:08.916961024,-0.28065467,0.00911901583529856
2025-01-08 10:08:08.926940928,-0.33109128,0.0013525891426259924
2025-01-08 10:08:08.936939008,-0.37882119,-0.006256093334019008
2025-01-08 10:08:08.947011840,-0.4292652,-0.013700425837324913
2025-01-08 10:08:08.957032960,-0.48803037,-0.020973957979299424
2025-01-08 10:08:08.966969856,-0.53745967,-0.028070400338765157
2025-01-08 10:08:08.976974848,-0.57506061,-0.0349836299119346
2025-01-08 10:08:08.987020032,-0.61075753,-0.04170769541133919
2025-01-08 10:08:08.997037056,-0.64737755,-0.04823682240852983
2025-01-08 10:08:09.007038976,-0.67971605,-0.054565418316097104
2025-01-08 10:08:09.017040896,-0.70724291,-0.06068807720470556
2025-01-08 10:08:09.027072000,-0.73131037,-0.06659958445098273
2025-01-08 10:08:09.037074176,-0.75052267,-0.07229492121225438
2025-01-08 10:08:09.047012096,-0.75880414,-0.07776926872426898
2025-01-08 10:08:09.057110016,-0.75947249,-0.08301801241821252
2025-01-08 10:08:09.067060992,-0.75094283,-0.08803674585347392
2025-01-08 10:08:09.077053952,-0.73747396,-0.0928212744627873
2025-01-08 10:08:09.087105024,-0.72575027,-0.09736761910653817
2025-01-08 10:08:09.097115136,-0.68831229,-0.101672019433196
2025-01-08 10:08:09.107150080,-0.63210595,-0.1057309370429996
2025-01-08 10:08:09.117143040,-0.56104726,-0.10954105845220496
2025-01-08 10:08:09.127116032,-0.46311992,-0.11309929785537097
2025-01-08 10:08:09.137076992,-0.36681378,-0.11640279968334695
2025-01-08 10:08:09.147186944,-0.26959044,-0.11944894095479812
2025-01-08 10:08:09.157273088,-0.17022288,-0.12223533341929416
2025-01-08 10:08:09.167126016,-0.04911715,-0.12475982549016584
2025-01-08 10:08:09.177115904,0.10215056,-0.12702050396552114
2025-01-08 10:08:09.187171840,0.26596451,-0.12901569553600037
2025-01-08 10:08:09.197195008,0.45368612,-0.13074396807803834
2025-01-08 10:08:09.207191040,0.61228073,-0.13220413173158796
2025-01-08 10:08:09.217165056,0.63016772,-0.13339523976145434
2025-01-08 10:08:09.227196928,0.52808177,-0.1343165892015735
2025-01-08 10:08:09.237164032,0.38982892,-0.13496772128176837
2025-01-08 10:08:09.247260160,0.31902117,-0.13534842163670013
2025-01-08 10:08:09.257189120,0.33827847,-0.1354587202969283
2025-01-08 10:08:09.267240960,0.37794399,-0.1352988914621837
2025-01-08 10:08:09.277255936,0.3528294,-0.1348694530571527
2025-01-08 10:08:09.289243904,0.24985802,-0.1341711660702586
2025-01-08 10:08:09.297143040,0.12119424,-0.13320503367612266
2025-01-08 10:08:09.307244032,0.01561081,-0.13197230014257036
2025-01-08 10:08:09.317302016,-0.04070175,-0.13047444952324813
2025-01-08 10:08:09.328301056,-0.07745272,-0.12871320413709475
2025-01-08 10:08:09.338368768,-0.1483295,-0.12669052283610618
2025-01-08 10:08:09.347262976,-0.24715906,-0.12440859906301466
2025-01-08 10:08:09.357292800,-0.35440916,-0.12186985870069186
2025-01-08 10:08:09.367499008,-0.45021445,-0.11907695771526486
2025-01-08 10:08:09.377402112,-0.52489978,-0.11603277959511918
2025-01-08 10:08:09.387456768,-0.56491888,-0.11274043258813854
2025-01-08 10:08:09.397469952,-0.57794958,-0.10920324673971415
2025-01-08 10:08:09.407508992,-0.56955814,-0.10542477073422485
2025-01-08 10:08:09.417638912,-0.52132517,-0.10140876854286918
2025-01-08 10:08:09.427632128,-0.49546427,-0.09715921588089332
2025-01-08 10:08:09.437520896,-0.51997614,-0.09268029647743425
2025-01-08 10:08:09.447646976,-0.53645796,-0.08797639816135637
2025-01-08 10:08:09.457426176,-0.46616459,-0.08305210876662394
2025-01-08 10:08:09.467411968,-0.35204375,-0.07791221186090858
2025-01-08 10:08:09.477519104,-0.32334691,-0.07256168230129119
2025-01-08 10:08:09.487278080,-0.44751996,-0.06700568162106245
2025-01-08 10:08:09.497304064,-0.67157525,-0.06124955325178058
2025-01-08 10:08:09.507278080,-0.89060295,-0.05529881758488456
2025-01-08 10:08:09.517324032,-1.10779858,-0.0491591668773086
2025-01-08 10:08:09.527345920,-1.32701373,-0.0428364600056719
2025-01-08 10:08:09.537334016,-1.49372625,-0.03633671707375938
2025-01-08 10:08:09.547463936,-1.59102702,-0.029666113878130458
2025-01-08 10:08:09.557495040,-1.68068099,-0.02283097623682272
2025-01-08 10:08:09.567522048,-1.78516746,-0.015837774186235602
2025-01-08 10:08:09.577677056,-1.89996457,-0.008693116051392107
2025-01-08 10:08:09.587536128,-1.97630882,-0.001403742394892969
2025-01-08 10:08:09.597619968,-2.01617479,0.006023480150021197
2025-01-08 10:08:09.607558912,-2.0626297,0.01358156515677967
2025-01-08 10:08:09.617472768,-2.09956145,0.021263412787546017
2025-01-08 10:08:09.627517952,-2.0975585,0.0290618162743331
2025-01-08 10:08:09.637512960,-2.07357383,0.03696946849337065
2025-01-08 10:08:09.647526912,-2.02704644,0.04497896862685217
2025-01-08 10:08:09.657521920,-1.96934772,0.05308282890610674
2025-01-08 10:08:09.667515904,-1.92540812,0.06127348143017699
2025-01-08 10:08:09.677592064,-1.88336325,0.0695432850537075
2025-01-08 10:08:09.687581184,-1.85754621,0.07788453233800186
2025-01-08 10:08:09.697544192,-1.82170224,0.0862894565590366
2025-01-08 10:08:09.707611136,-1.83821177,0.09475023876618555
2025-01-08 10:08:09.717626112,-1.97471702,0.10325901488535019
2025-01-08 10:08:09.727587072,-2.39774609,0.11180788286016538
2025-01-08 10:08:09.737593856,-2.9286027,0.12038890982490597
2025-01-08 10:08:09.747618816,-1.91815221,0.12899413930270442
2025-01-08 10:08:09.757708032,0.6373263,0.137615598422655
2025-01-08 10:08:09.767648000,3.34623504,0.1462453051493766
2025-01-08 10:08:09.777762816,6.36719322,0.15487527551858565
2025-01-08 10:08:09.787723008,5.98311472,0.16349753087223487
2025-01-08 10:08:09.797640192,4.07117605,0.17210410508676707
2025-01-08 10:08:09.807678976,3.82021213,0.18068705178804556
2025-01-08 10:08:09.817672960,4.80306387,0.18923845154653257
2025-01-08 10:08:09.827698944,5.3747201,0.19775041904630625
2025-01-08 10:08:09.837705984,4.88762236,0.20621511022153105
2025-01-08 10:08:09.847680000,4.11231852,0.21462472935402288
2025-01-08 10:08:09.857692928,3.26868868,0.22297153612559067
2025-01-08 10:08:09.867749888,2.38752174,0.23124785261887218
2025-01-08 10:08:09.877856000,1.59651268,0.23944607026042963
2025-01-08 10:08:09.887720192,0.88043809,0.2475586566999237
2025-01-08 10:08:09.897882880,0.25318,0.25557816261923905
2025-01-08 10:08:09.910466816,-0.12169075,0.2634972284655002
2025-01-08 10:08:09.917784832,-0.10498887,0.2713085911019812
2025-01-08 10:08:09.928953856,0.16724804,0.27900509037098886
2025-01-08 10:08:09.937843968,0.38648629,0.2865796755628758
2025-01-08 10:08:09.947830016,0.48761162,0.29402541178542446
2025-01-08 10:08:09.957715968,0.52115309,0.3013354862279296
2025-01-08 10:08:09.967816960,0.52184862,0.3085032143144049
2025-01-08 10:08:09.978272000,0.46585402,0.3155220457404329
2025-01-08 10:08:09.988020992,0.37536794,0.3223855703882845
2025-01-08 10:08:09.997807104,0.33709437,0.32908752411504205
2025-01-08 10:08:10.007854848,0.38376889,0.33562179440857015
2025-01-08 10:08:10.017869824,0.45517322,0.34198242590630046
2025-01-08 10:08:10.027745024,0.45919201,0.34816362577191445
2025-01-08 10:08:10.037976064,0.4071084,0.3541597689251358
2025-01-08 10:08:10.047924992,0.39480263,0.3599654031199771
2025-01-08 10:08:10.057832960,0.43579438,0.36557525386691414
2025-01-08 10:08:10.067841024,0.47818306,0.3709842291946076
2025-01-08 10:08:10.077872128,0.4376936,0.376187424246926
2025-01-08 10:08:10.088020992,0.32647741,0.38118012571117726
2025-01-08 10:08:10.097888000,0.26177168,0.3859578160736023
2025-01-08 10:08:10.107938048,0.29845876,0.39051617769833713
2025-01-08 10:08:10.117944832,0.36449552,0.3948510967262085
2025-01-08 10:08:10.127959040,0.41402191,0.3989586667898883
2025-01-08 10:08:10.137920000,0.41603121,0.4028351925420912
2025-01-08 10:08:10.147948032,0.36642998,0.4064771929936717
2025-01-08 10:08:10.157923072,0.33107427,0.4098814046586402
2025-01-08 10:08:10.167952896,0.34671736,0.41304478450329246
2025-01-08 10:08:10.177950976,0.40732059,0.41596451269681994
2025-01-08 10:08:10.188093952,0.50077099,0.4186379951609432
2025-01-08 10:08:10.197978112,0.62633121,0.4210628659162905
2025-01-08 10:08:10.208039936,0.71434021,0.42323698922342556
2025-01-08 10:08:10.217981952,0.70197916,0.42515846151660597
2025-01-08 10:08:10.228064000,0.59009868,0.426825613128543
2025-01-08 10:08:10.238028032,0.45158368,0.4282370098046165
2025-01-08 10:08:10.248049920,0.35837954,0.4293914540051847
2025-01-08 10:08:10.258054144,0.28678501,0.4302879859948201
2025-01-08 10:08:10.268039936,0.24987227,0.4309258847174877
2025-01-08 10:08:10.278043904,0.28004205,0.431304668456875
2025-01-08 10:08:10.288079104,0.31563556,0.43142409528127373
2025-01-08 10:08:10.298019840,0.30007428,0.4312841632726026
2025-01-08 10:08:10.308098048,0.23719674,0.43088511053935363
2025-01-08 10:08:10.318105088,0.15890938,0.43022741501343764
2025-01-08 10:08:10.328152064,0.03939623,0.4293117940310924
2025-01-08 10:08:10.338152960,-0.12081379,0.4281392036982164
2025-01-08 10:08:10.348148992,-0.19400877,0.4267108380406713
2025-01-08 10:08:10.358290944,0.00871348,0.4250281279403002
2025-01-08 10:08:10.368302080,0.44562107,0.4230927398575898
2025-01-08 10:08:10.378288128,0.96861976,0.4209065743420966
2025-01-08 10:08:10.388420096,1.40045834,0.4184717643319501
2025-01-08 10:08:10.398248960,1.48212767,0.41579067324392627
2025-01-08 10:08:10.408265984,1.15078068,0.4128658928557794
2025-01-08 10:08:10.418275072,0.79582566,0.40970024098269525
2025-01-08 10:08:10.428242944,0.70425242,0.4062967589499222
2025-01-08 10:08:10.438211072,0.76192433,0.4026587088638087
2025-01-08 10:08:10.448141056,0.85758251,0.39878957068366405
2025-01-08 10:08:10.458092800,0.9077487,0.3946930390970274
2025-01-08 10:08:10.468171008,0.87137407,0.39037302020111325
2025-01-08 10:08:10.478217984,0.80298609,0.3858336279933685
2025-01-08 10:08:10.488514816,0.79930198,0.38107918067425106
2025-01-08 10:08:10.498449920,0.88697177,0.3761141967655017
2025-01-08 10:08:10.508416768,0.97030008,0.37094339104734986
2025-01-08 10:08:10.520037888,0.97424412,0.36557167031825544
2025-01-08 10:08:10.528276992,0.90875244,0.36000412898094386
2025-01-08 10:08:10.538134016,0.80689138,0.35424604445864794
2025-01-08 10:08:10.548275968,0.72388172,0.348302872445625
2025-01-08 10:08:10.558348800,0.66365004,0.34218024199615904
2025-01-08 10:08:10.568777984,0.63218343,0.3358839504564087
2025-01-08 10:08:10.578432000,0.64446104,0.32941995824359943
2025-01-08 10:08:10.588489984,0.68160307,0.3227943834771914
2025-01-08 10:08:10.598315008,0.70410192,0.3160134964667954
2025-01-08 10:08:10.608372992,0.68891126,0.30908371406172735
2025-01-08 10:08:10.618393856,0.6530109,0.30201159386722526
2025-01-08 10:08:10.628421120,0.60444826,0.29480382833246405
2025-01-08 10:08:10.638423040,0.55571562,0.28746723871562446
2025-01-08 10:08:10.648313088,0.50374001,0.28000876893137905
2025-01-08 10:08:10.658319104,0.4556303,0.2724354792862672
2025-01-08 10:08:10.668267008,0.41694385,0.2647545401075268
2025-01-08 10:08:10.678242816,0.37785524,0.2569732252710526
2025-01-08 10:08:10.688349952,0.32724994,0.24909890563423603
2025-01-08 10:08:10.698506240,0.27555138,0.24113904237953337
2025-01-08 10:08:10.708404992,0.23519492,0.23310118027468182
2025-01-08 10:08:10.718260992,0.19655001,0.22499294085556756
2025-01-08 10:08:10.728306176,0.15162647,0.21682201553781244
2025-01-08 10:08:10.738262784,0.11620402,0.208596158663217
2025-01-08 10:08:10.748529920,0.08721393,0.20032318048724942
2025-01-08 10:08:10.758464000,0.06310433,0.19201094011383338
2025-01-08 10:08:10.768465152,0.0288533,0.18366733838372712
2025-01-08 10:08:10.778484992,-0.03113437,0.1753003107228356
2025-01-08 10:08:10.788463104,-0.09352082,0.1669178199568308
2025-01-08 10:08:10.799591936,-0.13654995,0.1585278490984889
2025-01-08 10:08:10.808497920,-0.14454639,0.15013839411417793
2025-01-08 10:08:10.818469888,-0.12394929,0.14175745667595138
2025-01-08 10:08:10.828557056,-0.09810305,0.133393036905715
2025-01-08 10:08:10.838557952,-0.08996511,0.1250531261179456
2025-01-08 10:08:10.848561152,-0.10757464,0.11674569956744338
2025-01-08 10:08:10.858587904,-0.15890497,0.10847870920859447
2025-01-08 10:08:10.868504064,-0.22517854,0.10026007647261413
2025-01-08 10:08:10.878501888,-0.26800519,0.09209768506922814
2025-01-08 10:08:10.888573952,-0.29822063,0.08399937381922498
2025-01-08 10:08:10.898554112,-0.33132607,0.07597292952429302
2025-01-08 10:08:10.908679936,-0.36994362,0.06802607988051945
2025-01-08 10:08:10.918617856,-0.4032445,0.060166486441895026
2025-01-08 10:08:10.928620032,-0.44128227,0.05240173764012316
2025-01-08 10:08:10.938582784,-0.48058963,0.04473934186698755
2025-01-08 10:08:10.948615168,-0.51410639,0.0371867206254751
2025-01-08 10:08:10.958714112,-0.53717786,0.02975120175579286
2025-01-08 10:08:10.968630016,-0.56091142,0.022440012742356505
2025-01-08 10:08:10.978615040,-0.59294379,0.015260274107752844
2025-01-08 10:08:10.988538112,-0.61923212,0.008218992899606285
2025-01-08 10:08:10.998636032,-0.63195181,0.001323056276199677
2025-01-08 10:08:11.008742144,-0.63726306,-0.005420774803389236
2025-01-08 10:08:11.018642944,-0.64670247,-0.012005871778960838
2025-01-08 10:08:11.029992192,-0.65626156,-0.018425744573102792
2025-01-08 10:08:11.038734080,-0.64257497,-0.024674047553855435
2025-01-08 10:08:11.048759040,-0.61532044,-0.030744585370768435
2025-01-08 10:08:11.058643200,-0.58150238,-0.036631318659084325
2025-01-08 10:08:11.068891904,-0.53646189,-0.04232836960691001
2025-01-08 10:08:11.078679040,-0.46708488,-0.04783002738034659
2025-01-08 10:08:11.088886016,-0.38499767,-0.05313075340168211
2025-01-08 10:08:11.102732032,-0.3215723,-0.05822518647587317
2025-01-08 10:08:11.108913920,-0.27736694,-0.06310814776067773
2025-01-08 10:08:11.118980864,-0.2358129,-0.06777464557593853
2025-01-08 10:08:11.128838912,-0.12180978,-0.07221988004765609
2025-01-08 10:08:11.138694144,0.0658021,-0.07643924758263662
2025-01-08 10:08:11.148797952,0.2518971,-0.08042834516964838
2025-01-08 10:08:11.158774016,0.37267506,-0.08418297450317307
2025-01-08 10:08:11.168724992,0.40543407,-0.08769914592599433
2025-01-08 10:08:11.178867968,0.4172796,-0.09097308218702388
2025-01-08 10:08:11.188830976,0.45409226,-0.09400122201093036
2025-01-08 10:08:11.198798848,0.51524609,-0.0967802234763022
2025-01-08 10:08:11.208856064,0.58008707,-0.09930696719923865
2025-01-08 10:08:11.218832896,0.61352026,-0.10157855931944385
2025-01-08 10:08:11.228864000,0.62370443,-0.10359233428606439
2025-01-08 10:08:11.238938112,0.60891497,-0.10534585744069296
2025-01-08 10:08:11.248896000,0.56817031,-0.1068369273951377
2025-01-08 10:08:11.258920960,0.51222867,-0.10806357820173561
2025-01-08 10:08:11.268878080,0.43831378,-0.10902408131417818
2025-01-08 10:08:11.278973952,0.34938085,-0.1097169473369942
2025-01-08 10:08:11.288880128,0.27037412,-0.11014092756202824
2025-01-08 10:08:11.298855168,0.20029461,-0.1102950152904375
2025-01-08 10:08:11.308896000,0.12744462,-0.11017844693892172
2025-01-08 10:08:11.318921216,0.02150398,-0.10979070292908949
2025-01-08 10:08:11.328905216,-0.11190051,-0.10913150835906066
2025-01-08 10:08:11.339319040,-0.24623406,-0.10820083345659004
2025-01-08 10:08:11.349091072,-0.36107773,-0.10699889381319866
2025-01-08 10:08:11.359059200,-0.43003666,-0.10552615039898923
2025-01-08 10:08:11.369107968,-0.46705914,-0.10378330935801586
2025-01-08 10:08:11.379051008,-0.5037452,-0.10177132158427524
2025-01-08 10:08:11.389070080,-0.53763646,-0.09949138207858105
2025-01-08 10:08:11.399037952,-0.55637228,-0.09694492908677418
2025-01-08 10:08:11.409018112,-0.55643046,-0.09413364301992203
2025-01-08 10:08:11.419045888,-0.5673514,-0.09105944515734617
2025-01-08 10:08:11.428987904,-0.627895,-0.08772449613351684
2025-01-08 10:08:11.438985216,-0.70073915,-0.08413119421004313
2025-01-08 10:08:11.449044992,-0.73877418,-0.08028217333417727
2025-01-08 10:08:11.459043072,-0.74019408,-0.07618030098544187
2025-01-08 10:08:11.469017856,-0.72615874,-0.0718286758121812
2025-01-08 10:08:11.479012864,-0.73821032,-0.06723062506001963
2025-01-08 10:08:11.489069056,-0.80300975,-0.062389701794398025
2025-01-08 10:08:11.499073024,-0.95152003,-0.0573096819195454
2025-01-08 10:08:11.509057024,-1.12956595,-0.051994560996419394
2025-01-08 10:08:11.519049984,-1.29434955,-0.046448550862331545
2025-01-08 10:08:11.529076224,-1.45143092,-0.04067607605515365
2025-01-08 10:08:11.539049984,-1.59842682,-0.034681770045167905
2025-01-08 10:08:11.549132032,-1.72069097,-0.028470471277805286
2025-01-08 10:08:11.559111168,-1.82804227,-0.022047219030677575
2025-01-08 10:08:11.569103872,-1.91269076,-0.015417249088482207
2025-01-08 10:08:11.579119872,-1.94363642,-0.00858598923951456
2025-01-08 10:08:11.589138944,-1.93604088,-0.0015590545976902515
2025-01-08 10:08:11.599118848,-1.90197968,0.005657757245869419
2025-01-08 10:08:11.609132032,-1.88504887,0.013058471237478933
2025-01-08 10:08:11.619141120,-1.93081665,0.020636940037399982
2025-01-08 10:08:11.629210880,-2.01674128,0.02838684935371647
2025-01-08 10:08:11.639208192,-2.11244011,0.03630172342893117
2025-01-08 10:08:11.649282048,-2.1991334,0.04437493067449608
2025-01-08 10:08:11.659149056,-2.2584312,0.05259968944836182
2025-01-08 10:08:11.669192192,-2.29889464,0.06096907397049955
2025-01-08 10:08:11.679186176,-2.31739998,0.06947602037122184
2025-01-08 10:08:11.689105920,-2.29622936,0.07811333286701212
2025-01-08 10:08:11.699127808,-2.28176117,0.08687369005845436
2025-01-08 10:08:11.709622016,-2.26371789,0.09574965134474253
2025-01-08 10:08:11.719222016,-2.30217814,0.10473366344914739
2025-01-08 10:08:11.729360128,-2.18507218,0.11381806704970938
2025-01-08 10:08:11.739150080,-1.20134807,0.12299510350933929
2025-01-08 10:08:11.749256960,1.00244868,0.1322569216994079
2025-01-08 10:08:11.759224832,3.94371629,0.14159558491082622
2025-01-08 10:08:11.769267968,6.65958881,0.15100307784653416
2025-01-08 10:08:11.779262976,5.61001062,0.16047131368924059
2025-01-08 10:08:11.789249792,3.53302264,0.16999214123818676
2025-01-08 10:08:11.799329024,3.3382616,0.17955735210864288
2025-01-08 10:08:11.809310976,4.12927675,0.189158687987784
2025-01-08 10:08:11.819308032,4.30327463,0.19878784794054302
2025-01-08 10:08:11.829303040,3.67008877,0.2084364957589866
2025-01-08 10:08:11.839304960,2.90382457,0.21809626734871906
2025-01-08 10:08:11.849266176,2.25921822,0.227758778145784
2025-01-08 10:08:11.859510784,1.77999854,0.23741563055749754
2025-01-08 10:08:11.869395968,1.48382878,0.24705842142063128
2025-01-08 10:08:11.879350016,1.43375075,0.2566787494703323
2025-01-08 10:08:11.889369088,1.39935958,0.2662682228131647
2025-01-08 10:08:11.899371008,1.08572686,0.27581846639764035
2025-01-08 10:08:11.909387008,0.47316268,0.2853211294756137
2025-01-08 10:08:11.919418112,-0.17933789,0.29476789304791207
2025-01-08 10:08:11.929415936,-0.38166022,0.3041504772875853
2025-01-08 10:08:11.939410944,0.0404374,0.3134606489341786
2025-01-08 10:08:11.949474048,0.56274271,0.3226902286524451
2025-01-08 10:08:11.959537920,0.75754428,0.3318310983489523
2025-01-08 10:08:11.969491968,0.68584388,0.34087520844006025
2025-01-08 10:08:11.979430912,0.63105369,0.3498145850647967
2025-01-08 10:08:11.989468928,0.73849761,0.3586413372361922
2025-01-08 10:08:11.999456000,0.89660239,0.3673476639246932
2025-01-08 10:08:12.009499904,0.96763957,0.3759258610673251
2025-01-08 10:08:12.019499008,0.93934184,0.38436832849634067
2025-01-08 10:08:12.029531904,0.87011045,0.3926675767811524
2025-01-08 10:08:12.039499008,0.85705054,0.40081623397742655
2025-01-08 10:08:12.049555968,0.94846004,0.4088070522772887
2025-01-08 10:08:12.059612928,1.02056348,0.41663291455467794
2025-01-08 10:08:12.069499904,1.01640785,0.4242868407999747
2025-01-08 10:08:12.079511040,0.94377208,0.43176199443812074
2025-01-08 10:08:12.089474816,0.91034728,0.4390516885245488
2025-01-08 10:08:12.099539968,1.01483262,0.44614939181334784
2025-01-08 10:08:12.109548032,1.13716328,0.4530487346921903
2025-01-08 10:08:12.119504896,1.18950605,0.45974351497867394
2025-01-08 10:08:12.129574912,1.17014074,0.46622770357283727
2025-01-08 10:08:12.139589120,1.1232239,0.4724954499607426
2025-01-08 10:08:12.149701120,1.0652523,0.4785410875641398
2025-01-08 10:08:12.159540992,0.97842282,0.484359138931364
2025-01-08 10:08:12.169609984,0.87778223,0.48994432076475025
2025-01-08 10:08:12.179589120,0.76647949,0.4952915487799979
2025-01-08 10:08:12.189662976,0.73259729,0.5003959423930544
2025-01-08 10:08:12.199667968,0.7714144,0.5052528292302437
2025-01-08 10:08:12.209705984,0.76782691,0.5098577494575166
2025-01-08 10:08:12.219660032,0.70908868,0.514206459924852
2025-01-08 10:08:12.229693952,0.63887864,0.51829493812201
2025-01-08 10:08:12.239624960,0.62149501,0.5221193859419881
2025-01-08 10:08:12.249681920,0.60678822,0.5256762332487106
2025-01-08 10:08:12.259696128,0.49413985,0.5289621412456456
2025-01-08 10:08:12.269676032,0.33275175,0.5319740056422181
2025-01-08 10:08:12.279692800,0.16954708,0.5347089596150685
2025-01-08 10:08:12.289697792,0.0319941,0.5371643765613773
2025-01-08 10:08:12.299730944,-0.04558361,0.5393378726416668
2025-01-08 10:08:12.309883136,-0.07356006,0.541227309109668
2025-01-08 10:08:12.319910144,-0.0247016,0.5428307944270312
2025-01-08 10:08:12.329891840,0.22157663,0.5441466861608476
2025-01-08 10:08:12.339872000,0.63332766,0.5451735926621342
2025-01-08 10:08:12.349873152,0.98728687,0.5459103745236324
2025-01-08 10:08:12.359875840,1.09377623,0.5463561458154641
2025-01-08 10:08:12.369914112,0.99315101,0.5465102750973774
2025-01-08 10:08:12.379817984,0.80756825,0.5463723862065204
2025-01-08 10:08:12.389854976,0.67128855,0.5459423588198682
2025-01-08 10:08:12.400477952,0.72433197,0.5452203287906373
2025-01-08 10:08:12.409774080,0.88771111,0.5442066882582116
2025-01-08 10:08:12.419750912,0.96027094,0.542902085531308
2025-01-08 10:08:12.429817856,0.90492648,0.5413074247443113
2025-01-08 10:08:12.439762176,0.75601113,0.539423865286901
2025-01-08 10:08:12.449843968,0.66700143,0.5372528210073042
2025-01-08 10:08:12.459814912,0.77478302,0.5347959591896954
2025-01-08 10:08:12.469886976,1.00583148,0.5320551993064752
2025-01-08 10:08:12.479863808,1.18058121,0.529032711546351
2025-01-08 10:08:12.489849088,1.23038554,0.5257309151193486
2025-01-08 10:08:12.499944960,1.15678096,0.522152476340072
2025-01-08 10:08:12.509859072,0.98995465,0.518300306490734
2025-01-08 10:08:12.519862784,0.82996482,0.5141775594656709
2025-01-08 10:08:12.530010880,0.76551855,0.509787629199251
2025-01-08 10:08:12.542375168,0.76008487,0.5051341468792744
2025-01-08 10:08:12.549945088,0.76638043,0.5002209779481596
2025-01-08 10:08:12.560182016,0.78950119,0.49505221889439477
2025-01-08 10:08:12.570877184,0.79444408,0.4896321938369239
2025-01-08 10:08:12.579974912,0.73928463,0.4839654509053147
2025-01-08 10:08:12.590003968,0.64011675,0.4780567584187485
2025-01-08 10:08:12.600019968,0.55751395,0.4719111008670413
2025-01-08 10:08:12.610112000,0.50703812,0.4655336746970891
2025-01-08 10:08:12.619975936,0.48108262,0.45892988390830247
2025-01-08 10:08:12.630053888,0.48586029,0.4521053354607645
2025-01-08 10:08:12.639961088,0.48673117,0.44506583450001824
2025-01-08 10:08:12.650003968,0.46453905,0.4378173794025524
2025-01-08 10:08:12.660030976,0.44141144,0.4303661566462122
2025-01-08 10:08:12.670013952,0.40480596,0.4227185355099271
2025-01-08 10:08:12.680017920,0.35401255,0.4148810626072928
2025-01-08 10:08:12.690145024,0.3050307,0.40686045625870126
2025-01-08 10:08:12.700084992,0.26375514,0.39866360070685486
2025-01-08 10:08:12.710114048,0.23809814,0.3902975401806438
2025-01-08 10:08:12.720071936,0.21385187,0.38176947281250256
2025-01-08 10:08:12.730098944,0.17967862,0.3730867444144975
2025-01-08 10:08:12.740033024,0.1301263,0.36425684211851944
2025-01-08 10:08:12.750102016,0.09462994,0.3552873878860887
2025-01-08 10:08:12.760070912,0.08545494,0.3461861318933892
2025-01-08 10:08:12.770123008,0.09497589,0.33696094579727104
2025-01-08 10:08:12.780132096,0.10795194,0.32761981588806455
2025-01-08 10:08:12.790157056,0.09723616,0.3181708361351571
2025-01-08 10:08:12.800143104,0.05281174,0.30862220113138
2025-01-08 10:08:12.810117888,-0.00365937,0.29898219894234956
2025-01-08 10:08:12.820121088,-0.04126751,0.28925920386699355
2025-01-08 10:08:12.830169088,-0.05732536,0.27946166911557774
2025-01-08 10:08:12.840184064,-0.08194762,0.269598119411625
2025-01-08 10:08:12.850210816,-0.12282461,0.259677143524192
2025-01-08 10:08:12.860196096,-0.16908312,0.24970738673703538
2025-01-08 10:08:12.870242048,-0.21594518,0.239697543261258
2025-01-08 10:08:12.880314112,-0.26384181,0.22965634859808587
2025-01-08 10:08:12.890253056,-0.30988455,0.21959257185846906
2025-01-08 10:08:12.900177920,-0.35204405,0.20951500804625084
2025-01-08 10:08:12.910171136,-0.38834244,0.19943247031167866
2025-01-08 10:08:12.920212992,-0.41576803,0.18935378218207158
2025-01-08 10:08:12.930236160,-0.44201148,0.1792877697764769
2025-01-08 10:08:12.940244992,-0.46470922,0.16924325401117113
2025-01-08 10:08:12.950257920,-0.49075758,0.15922904280287775
2025-01-08 10:08:12.960214016,-0.51701641,0.14925392327657383
2025-01-08 10:08:12.970319104,-0.5293746,0.13932665398476957
2025-01-08 10:08:12.980276224,-0.53408533,0.12945595714513142
2025-01-08 10:08:12.990294016,-0.53345364,0.11965051090331516
2025-01-08 10:08:13.000233984,-0.53247434,0.10991894162785583
2025-01-08 10:08:13.010168064,-0.54511899,0.10026981624394028
2025-01-08 10:08:13.021451008,-0.55207729,0.09071163461285969
2025-01-08 10:08:13.030915072,-0.53552067,0.08125282196390521
2025-01-08 10:08:13.040311040,-0.49764121,0.07190172138542765
2025-01-08 10:08:13.050313984,-0.43551379,0.06266658638174023
2025-01-08 10:08:13.060344832,-0.37345314,0.05355557350248576
2025-01-08 10:08:13.070311168,-0.31107771,0.044576735051036064
2025-01-08 10:08:13.080374016,-0.23539752,0.03573801187842588
2025-01-08 10:08:13.090593024,-0.13363534,0.027047226269253426
2025-01-08 10:08:13.100337920,-0.01272655,0.01851207492590549
2025-01-08 10:08:13.110380800,0.10641122,0.010140122057385103
2025-01-08 10:08:13.120371200,0.22322965,0.0019387925789291869
2025-01-08 10:08:13.130328832,0.31427073,-0.006084634571481661
2025-01-08 10:08:13.140590080,0.36269557,-0.013923032993724358
2025-01-08 10:08:13.150424832,0.41572434,-0.021569435257342957
2025-01-08 10:08:13.160425984,0.50345153,-0.029017039198779744
2025-01-08 10:08:13.171400192,0.59026736,-0.03625921407834913
2025-01-08 10:08:13.180421120,0.63205731,-0.04328950659139442
2025-01-08 10:08:13.190548992,0.61559641,-0.05010164672819346
2025-01-08 10:08:13.200512000,0.57025039,-0.05668955347730346
2025-01-08 10:08:13.210439936,0.51789343,-0.06304734036717131
2025-01-08 10:08:13.221939200,0.44346911,-0.06916932084097016
2025-01-08 10:08:13.231288832,0.33244818,-0.07505001345976817
2025-01-08 10:08:13.240647168,0.20662332,-0.08068414692927849
2025-01-08 10:08:13.250631936,0.06575418,-0.08606666494559241
2025-01-08 10:08:13.260263936,-0.07069451,-0.0911927308554527
2025-01-08 10:08:13.270317056,-0.1954127,-0.09605773212677886
2025-01-08 10:08:13.280304896,-0.32621109,-0.10065728462532625
2025-01-08 10:08:13.290537984,-0.45697457,-0.10498723669351924
2025-01-08 10:08:13.300759040,-0.57684994,-0.10904367302767459
2025-01-08 10:08:13.310501120,-0.63981491,-0.11282291835000173
2025-01-08 10:08:13.320468992,-0.6218558,-0.11632154087194509
2025-01-08 10:08:13.330679040,-0.54790109,-0.1195363555456124
2025-01-08 10:08:13.340563968,-0.46790355,-0.12246442710021697
2025-01-08 10:08:13.350409984,-0.42752969,-0.12510307286064512
2025-01-08 10:08:13.360898048,-0.46120715,-0.12744986534545474
2025-01-08 10:08:13.370477056,-0.52627695,-0.12950263464179348
2025-01-08 10:08:13.380417024,-0.58575147,-0.13125947055492612
2025-01-08 10:08:13.390529024,-0.65826082,-0.13271872453025044
2025-01-08 10:08:13.400627968,-0.75273746,-0.13387901134588318
2025-01-08 10:08:13.410619136,-0.82543772,-0.13473921057409557
2025-01-08 10:08:13.420603904,-0.86845714,-0.13529846781007565
2025-01-08 10:08:13.430691072,-0.92374599,-0.13555619566670363
2025-01-08 10:08:13.440608000,-0.99031544,-0.13551207453422554
2025-01-08 10:08:13.450671872,-1.0767535,-0.13516605310391866
2025-01-08 10:08:13.460450048,-1.19824278,-0.13451834865504447
2025-01-08 10:08:13.470684928,-1.34825945,-0.13356944710459856
2025-01-08 10:08:13.480640000,-1.49370837,-0.13232010281956536
2025-01-08 10:08:13.490717952,-1.61022234,-0.13077133819160375
2025-01-08 10:08:13.500829952,-1.69483805,-0.1289244429742884
2025-01-08 10:08:13.510524160,-1.7620759,-0.1267809733832473
2025-01-08 10:08:13.520695040,-1.81987119,-0.12434275095973885
2025-01-08 10:08:13.530720000,-1.85132766,-0.12161186119842476
2025-01-08 10:08:13.540716800,-1.84243977,-0.11859065194029846
2025-01-08 10:08:13.550720000,-1.80834246,-0.11528173153193605
2025-01-08 10:08:13.560743168,-1.79203618,-0.11168796675244712
2025-01-08 10:08:13.570787072,-1.828794,-0.10781248050970094
2025-01-08 10:08:13.580734976,-1.91231918,-0.10365864930761304
2025-01-08 10:08:13.590769152,-2.0019877,-0.09923010048647737
2025-01-08 10:08:13.600798976,-2.07238483,-0.0945307092385291
2025-01-08 10:08:13.610766848,-2.10334349,-0.08956459540112438
2025-01-08 10:08:13.623569920,-2.11224961,-0.08433612003012035
2025-01-08 10:08:13.631652096,-2.14169502,-0.07884988175623138
2025-01-08 10:08:13.640909056,-2.20919466,-0.07311071292733405
2025-01-08 10:08:13.650739968,-2.1830225,-0.06712367553988223
2025-01-08 10:08:13.660805888,-2.13916016,-0.060894056962780496
2025-01-08 10:08:13.670838016,-2.38640261,-0.05442736545725203
2025-01-08 10:08:13.680834048,-2.34137726,-0.04772932549641583
2025-01-08 10:08:13.691065088,-0.78570104,-0.040805872888472455
2025-01-08 10:08:13.700848128,1.42671311,-0.03366314970756792
2025-01-08 10:08:13.710863104,3.86454749,-0.026307499036581625
2025-01-08 10:08:13.720904960,5.19929457,-0.018745459526252294
2025-01-08 10:08:13.730825984,3.53038073,-0.010983759775221986
2025-01-08 10:08:13.741007104,2.65659857,-0.003029312535737314
2025-01-08 10:08:13.751051776,3.10792923,0.005110791250091352
2025-01-08 10:08:13.760960000,3.7292552,0.0134292885784222
2025-01-08 10:08:13.770978048,3.81246686,0.02191875067100323
2025-01-08 10:08:13.780937984,3.37300158,0.03057158941633845
2025-01-08 10:08:13.791134976,2.83187532,0.039380063959208955
2025-01-08 10:08:13.801352960,2.31547403,0.048336287432930336
2025-01-08 10:08:13.811059968,1.83666444,0.05743223382859188
2025-01-08 10:08:13.820933120,1.45547116,0.06665974499539729
2025-01-08 10:08:13.830980096,1.14152253,0.07601053776610937
2025-01-08 10:08:13.840961024,0.84204209,0.08547621120147993
2025-01-08 10:08:13.850985984,0.49942237,0.09504825394744047
2025-01-08 10:08:13.860975872,0.10261506,0.10471805169871945
2025-01-08 10:08:13.871031040,0.11624503,0.11447689476245637
2025-01-08 10:08:13.881030912,0.57461917,0.12431598571528349
2025-01-08 10:08:13.891056896,0.87464392,0.1342264471472614
2025-01-08 10:08:13.901122048,0.82041156,0.14419932948596953
2025-01-08 10:08:13.911161856,0.6425879,0.15422561889397424
2025-01-08 10:08:13.921385984,0.66855109,0.16429624523282868
2025-01-08 10:08:13.931049984,0.88640422,0.1744020900866886
2025-01-08 10:08:13.940983040,1.1043067,0.18453399483857233
2025-01-08 10:08:13.951065088,1.15899646,0.1946827687922364
2025-01-08 10:08:13.961074176,1.02870619,0.20483919733259343
2025-01-08 10:08:13.971118848,0.8311376,0.2149940501175533
2025-01-08 10:08:13.981102848,0.67151868,0.22513808929413887
2025-01-08 10:08:13.991089152,0.63654292,0.23526207773168958
2025-01-08 10:08:14.001104128,0.83015668,0.24535678726495555
2025-01-08 10:08:14.011217152,1.05098009,0.25541300693985325
2025-01-08 10:08:14.021121024,1.03633106,0.2654215512546566
2025-01-08 10:08:14.031141120,0.81111115,0.27537326838938364
2025-01-08 10:08:14.041187072,0.58923495,0.28525904841614624
2025-01-08 10:08:14.051147008,0.46381369,0.29506983148323596
2025-01-08 10:08:14.061132800,0.38831496,0.3047966159657351
2025-01-08 10:08:14.071188992,0.37706369,0.3144304665754605
2025-01-08 10:08:14.081193984,0.45589799,0.32396252242308027
2025-01-08 10:08:14.091245056,0.58741635,0.33338400502526794
2025-01-08 10:08:14.101212928,0.6467846,0.34268622624980816
2025-01-08 10:08:14.111324928,0.64009309,0.3518605961916053
2025-01-08 10:08:14.121191936,0.69199842,0.3608986309726051
2025-01-08 10:08:14.131225088,0.78724539,0.36979196045869134
2025-01-08 10:08:14.141307136,0.84242374,0.3785323358866896
2025-01-08 10:08:14.151238912,0.82972926,0.38711163739467447
2025-01-08 10:08:14.161251072,0.78997856,0.3955218814488596
2025-01-08 10:08:14.171287040,0.71830034,0.40375522816042325
2025-01-08 10:08:14.181242880,0.62418616,0.41180398848572025
2025-01-08 10:08:14.191302144,0.59449488,0.41966063130341424
2025-01-08 10:08:14.201230080,0.66540635,0.42731779036217377
2025-01-08 10:08:14.211340800,0.66616225,0.4347682710926713
2025-01-08 10:08:14.221280000,0.54486912,0.44200505727774364
2025-01-08 10:08:14.231329792,0.44968253,0.44902131757467917
2025-01-08 10:08:14.241359104,0.35965502,0.4558104118837291
2025-01-08 10:08:14.251471104,0.25319868,0.4623658975570554
2025-01-08 10:08:14.261459968,0.35395473,0.46868153544246893
2025-01-08 10:08:14.271617024,0.70465523,0.47475129575644265
2025-01-08 10:08:14.281442048,1.00794005,0.4805693637810303
2025-01-08 10:08:14.291430912,1.14534855,0.48613014537946214
2025-01-08 10:08:14.301465088,1.15357113,0.4914282723253487
2025-01-08 10:08:14.311467776,1.06145787,0.4964586074405685
2025-01-08 10:08:14.321771008,0.99230617,0.5012162495370884
2025-01-08 10:08:14.331513856,1.03690791,0.5056965381581175
2025-01-08 10:08:14.341381120,1.08803105,0.5098950581141742
2025-01-08 10:08:14.351300096,1.01716828,0.5138076438098107
2025-01-08 10:08:14.361274880,0.8828401,0.5174303833569229
2025-01-08 10:08:14.371424000,0.79292524,0.5207596224707476
2025-01-08 10:08:14.381437184,0.7712028,0.5237919681448376
2025-01-08 10:08:14.391448064,0.78284973,0.526524292101489
2025-01-08 10:08:14.401390080,0.86013341,0.5289537340142872
2025-01-08 10:08:14.412816128,0.95466697,0.5310777044996338
2025-01-08 10:08:14.423311104,0.98762423,0.5328938878743068
2025-01-08 10:08:14.431585024,0.9459095,0.5344002446763122
2025-01-08 10:08:14.442835200,0.86443537,0.5355950139464841
2025-01-08 10:08:14.451324928,0.75863862,0.5364767152684976
2025-01-08 10:08:14.461335040,0.69604045,0.5370441505651558
2025-01-08 10:08:14.471441152,0.73422915,0.5372964056490358
2025-01-08 10:08:14.481359104,0.80853021,0.5372328515257773
2025-01-08 10:08:14.491517952,0.80809885,0.5368531454485127
2025-01-08 10:08:14.501501184,0.72602648,0.5361572317221551
2025-01-08 10:08:14.511464192,0.64058137,0.5351453422564694
2025-01-08 10:08:14.521622016,0.59144187,0.5338179968670738
2025-01-08 10:08:14.531641856,0.58621854,0.5321760033237333
2025-01-08 10:08:14.541615872,0.60901499,0.5302204571455239
2025-01-08 10:08:14.551572992,0.61884087,0.5279527411426678
2025-01-08 10:08:14.561505024,0.59841287,0.5253745247050563
2025-01-08 10:08:14.571651840,0.58465922,0.5224877628376999
2025-01-08 10:08:14.581563904,0.60489595,0.5192946949435571
2025-01-08 10:08:14.591585024,0.63885832,0.5157978433544238
2025-01-08 10:08:14.601563904,0.66252452,0.5120000116107729
2025-01-08 10:08:14.611846912,0.66932952,0.5079042824916598
2025-01-08 10:08:14.622864128,0.66472113,0.5035140157960236
2025-01-08 10:08:14.631710976,0.65725124,0.49883284587693005
2025-01-08 10:08:14.641638912,0.66085893,0.4938646789305216
2025-01-08 10:08:14.651622144,0.6685524,0.4886136900416495
2025-01-08 10:08:14.661633024,0.6630646,0.4830843199883806
2025-01-08 10:08:14.671693056,0.64041406,0.47728127180777674
2025-01-08 10:08:14.681679872,0.5985949,0.4712095071255625
2025-01-08 10:08:14.691656192,0.53771847,0.46487424225249574
2025-01-08 10:08:14.701730048,0.46534073,0.4582809440504667
2025-01-08 10:08:14.711607040,0.38511074,0.4514353255715511
2025-01-08 10:08:14.721559040,0.3153649,0.4443433414734455
2025-01-08 10:08:14.731659776,0.2565558,0.4370111832149077
2025-01-08 10:08:14.741561856,0.19470894,0.429445274035024
2025-01-08 10:08:14.751635200,0.11970705,0.42165226372031117
2025-01-08 10:08:14.761626880,0.03867888,0.41363902316385515
2025-01-08 10:08:14.771825152,-0.05675358,0.4054126387208706
2025-01-08 10:08:14.781788160,-0.19331497,0.3969804063652455
2025-01-08 10:08:14.791876096,-0.34726816,0.3883498256518175
2025-01-08 10:08:14.801768192,-0.47870106,0.37952859348929674
2025-01-08 10:08:14.811831040,-0.58543539,0.370524597728926
2025-01-08 10:08:14.821757952,-0.66252279,0.3613459105741286
2025-01-08 10:08:14.831864064,-0.70282197,0.3520007818165607
2025-01-08 10:08:14.841750016,-0.71555293,0.3424976319041399
2025-01-08 10:08:14.851734016,-0.72363406,0.3328450448467725
2025-01-08 10:08:14.863094016,-0.74807018,0.3230517609656537
2025-01-08 10:08:14.871815936,-0.78390014,0.31312666949215257
2025-01-08 10:08:14.881778944,-0.81058615,0.30307880102243706
2025-01-08 10:08:14.891838976,-0.82601058,0.29291731983412067
2025-01-08 10:08:14.901806080,-0.83347106,0.2826515160713461
2025-01-08 10:08:14.911910144,-0.8541801,0.2722907978048383
2025-01-08 10:08:14.921868032,-0.89397925,0.26184468297357866
2025-01-08 10:08:14.931909120,-0.93877965,0.2513227912148632
2025-01-08 10:08:14.941931008,-0.97393745,0.24073483558960979
2025-01-08 10:08:14.951919104,-1.00847459,0.23009061420988453
2025-01-08 10:08:14.963715072,-1.0316757,0.21940000177570543
2025-01-08 10:08:14.972055808,-1.02616727,0.20867294102827397
2025-01-08 10:08:14.981991936,-0.99373263,0.19791943412686352
2025-01-08 10:08:14.991950080,-0.95157206,0.18714953395667197
2025-01-08 10:08:15.001935872,-0.90051222,0.17637333537501346
2025-01-08 10:08:15.011955968,-0.82880223,0.1656009664032887
2025-01-08 10:08:15.021936896,-0.73015118,0.1548425793722297
2025-01-08 10:08:15.032023040,-0.60042328,0.14410834202796596
2025-01-08 10:08:15.042097920,-0.43998152,0.1334084286065032
2025-01-08 10:08:15.051939840,-0.26705998,0.12275301088424292
2025-01-08 10:08:15.071557888,-0.07393849,0.11215224921220364
2025-01-08 10:08:15.073128960,0.15255934,0.1016162835416299
2025-01-08 10:08:15.082158080,0.38892674,0.0911552244486898
2025-01-08 10:08:15.097974016,0.58517486,0.08077914416598041
2025-01-08 10:08:15.101883904,0.7022447,0.07049806762855655
2025-01-08 10:08:15.111880960,0.72642201,0.060321963542207604
2025-01-08 10:08:15.121964032,0.67807621,0.05026073548168818
2025-01-08 10:08:15.149988864,0.63581848,0.040324213026603294
2025-01-08 10:08:15.150010112,0.61772263,0.030522142942620418
2025-01-08 10:08:15.152044032,0.60674667,0.02086418041565942
2025-01-08 10:08:15.162699008,0.56655711,0.011359880346668665
2025-01-08 10:08:15.172871168,0.47790992,0.0020186887145662406
2025-01-08 10:08:15.181999872,0.3614608,-0.007150065985134744
2025-01-08 10:08:15.192044032,0.19916236,-0.01613718121853982
2025-01-08 10:08:15.201991936,0.01266474,-0.024933588801020035
2025-01-08 10:08:15.212215040,-0.11194557,-0.033530363186941366
2025-01-08 10:08:15.222110976,-0.16347426,-0.04191872965421222
2025-01-08 10:08:15.232260096,-0.18986416,-0.050090072376448906
2025-01-08 10:08:15.242575872,-0.23735487,-0.058035942375658865
2025-01-08 10:08:15.253124096,-0.31603485,-0.06574806534842192
2025-01-08 10:08:15.262586112,-0.39298439,-0.07321834935865457
2025-01-08 10:08:15.272454912,-0.45131689,-0.0804388923901405
2025-01-08 10:08:15.282349056,-0.45964283,-0.08740198975212658
2025-01-08 10:08:15.292357888,-0.41833925,-0.09410014133139266
2025-01-08 10:08:15.303884032,-0.37451786,-0.10052605868432783
2025-01-08 10:08:15.312306944,-0.35550767,-0.10667267196267305
2025-01-08 10:08:15.322276096,-0.33325619,-0.11253313666672181
2025-01-08 10:08:15.332323072,-0.28097135,-0.11810084021990538
2025-01-08 10:08:15.342457088,-0.23220235,-0.12336940835883985
2025-01-08 10:08:15.352400896,-0.21888959,-0.12833271133304913
2025-01-08 10:08:15.362299904,-0.28006339,-0.132984869908745
2025-01-08 10:08:15.372416000,-0.3949663,-0.13732026117118976
2025-01-08 10:08:15.382280960,-0.52244538,-0.14133352412034356
2025-01-08 10:08:15.392386048,-0.63856715,-0.1450195650546527
2025-01-08 10:08:15.403820032,-0.7118814,-0.14837356273802224
2025-01-08 10:08:15.412961024,-0.76562983,-0.15139097334517948
2025-01-08 10:08:15.422441984,-0.8278513,-0.154067535180826
2025-01-08 10:08:15.432425984,-0.92589569,-0.1563992731681543
2025-01-08 10:08:15.442393088,-1.00610042,-0.1583825031024998
2025-01-08 10:08:15.452392960,-1.09110355,-0.16001383566608784
2025-01-08 10:08:15.462574080,-1.26630807,-0.1612901802000351
2025-01-08 10:08:15.472409856,-1.51516879,-0.1622087482299595
2025-01-08 10:08:15.482242048,-1.73960233,-0.1627670567417648
2025-01-08 10:08:15.492414976,-1.88498831,-0.16296293120436586
2025-01-08 10:08:15.504013056,-1.99153781,-0.16279450833633097
2025-01-08 10:08:15.512461824,-2.09992933,-0.16226023861363148
2025-01-08 10:08:15.522592000,-2.20480657,-0.16135888851590643
2025-01-08 10:08:15.532423936,-2.2780757,-0.16008954250885993
2025-01-08 10:08:15.542524160,-2.32508183,-0.15845160476063747
2025-01-08 10:08:15.554029824,-2.36561847,-0.15644480059024085
2025-01-08 10:08:15.562521088,-2.39613008,-0.1540691776462742
2025-01-08 10:08:15.572590080,-2.42199349,-0.15132510681452804
2025-01-08 10:08:15.582499072,-2.45363665,-0.1482132828531471
2025-01-08 10:08:15.592539904,-2.46155477,-0.14473472475434299
2025-01-08 10:08:15.603152896,-2.40180278,-0.14089077583185577
2025-01-08 10:08:15.612577024,-2.24988794,-0.136683103533587
2025-01-08 10:08:15.622637056,-2.02766228,-0.13211369897906539
2025-01-08 10:08:15.632497152,-1.86016941,-0.12718487622163233
2025-01-08 10:08:15.642525952,-2.15110707,-0.12189927123547342
2025-01-08 10:08:15.661686016,-2.36718178,-0.11625984062784546
2025-01-08 10:08:15.663192064,-0.75638139,-0.11026986007708932
2025-01-08 10:08:15.672375808,2.39772511,-0.1039329224972424
2025-01-08 10:08:15.682548992,6.80669641,-0.09725293593030349
2025-01-08 10:08:15.692562176,7.99306774,-0.09023412116742766
2025-01-08 10:08:15.704308992,4.34687471,-0.08288100910056337
2025-01-08 10:08:15.716683008,3.04489756,-0.07519843780626784
2025-01-08 10:08:15.724740096,4.072927,-0.06719154936367022
2025-01-08 10:08:15.732978176,5.17653656,-0.058865786408773255
2025-01-08 10:08:15.743124992,4.75486994,-0.05022688842751344
2025-01-08 10:08:15.754174976,3.69632554,-0.04128088779021677
2025-01-08 10:08:15.766076928,2.88283491,-0.03203410553031572
2025-01-08 10:08:15.772429056,2.24323821,-0.022493146870403997
2025-01-08 10:08:15.782448896,1.6987536,-0.012664896498929384
2025-01-08 10:08:15.792500992,1.22219563,-0.0025565136010317043
2025-01-08 10:08:15.803888128,0.90663683,0.007824573352749473
2025-01-08 10:08:15.812571136,0.68087941,0.018470672055967582
2025-01-08 10:08:15.823159040,0.31911549,0.029373832049828703
2025-01-08 10:08:15.832566016,-0.1209645,0.04052585063647869
2025-01-08 10:08:15.842595072,-0.38121569,0.05191827901748319
2025-01-08 10:08:15.853046016,-0.26621437,0.0635424286527695
2025-01-08 10:08:15.862740992,0.12216005,0.07538937783510652
2025-01-08 10:08:15.872926976,0.46550235,0.08744997847501841
2025-01-08 10:08:15.882707968,0.64639604,0.09971486309083187
2025-01-08 10:08:15.892729088,0.74714243,0.11217445199839432
2025-01-08 10:08:15.903961856,0.85754341,0.12481896069480931
2025-01-08 10:08:15.912776960,0.9534992,0.1376384074303793
2025-01-08 10:08:15.922996992,0.98919898,0.15062262096277065
2025-01-08 10:08:15.932785152,1.00191283,0.16376124848726165
2025-01-08 10:08:15.942800896,1.02230692,0.17704376373677483
2025-01-08 10:08:15.953097216,1.050506,0.19045947524524817
2025-01-08 10:08:15.962800128,1.03643489,0.20399753476774976
2025-01-08 10:08:15.972851968,1.01462901,0.21764694585060745
2025-01-08 10:08:15.982897152,1.02803648,0.2313965725446823
2025-01-08 10:08:15.993001984,1.08311701,0.2452351482547961
2025-01-08 10:08:16.006497024,1.07002437,0.2591512847181902
2025-01-08 10:08:16.012896000,0.92311847,0.27313348110478264
2025-01-08 10:08:16.022888960,0.8447082,0.287170133231877
2025-01-08 10:08:16.032836864,0.87693453,0.3012495428858724
2025-01-08 10:08:16.042917120,0.93170708,0.3153599272434219
2025-01-08 10:08:16.052877056,0.95622182,0.3294894283843979
2025-01-08 10:08:16.062865920,0.85304666,0.34362612288893485
2025-01-08 10:08:16.072887808,0.67688119,0.35775803151073765
2025-01-08 10:08:16.082990848,0.6075139,0.371873128918775
2025-01-08 10:08:16.092953088,0.71889353,0.38595935349940347
2025-01-08 10:08:16.103192064,0.82627368,0.4000046172109139
2025-01-08 10:08:16.112960000,0.8831808,0.41399681548243333
2025-01-08 10:08:16.122904064,0.89876646,0.42792383714907
2025-01-08 10:08:16.132935936,0.83310789,0.4417735744151484
2025-01-08 10:08:16.142944000,0.74910635,0.45553393283734755
2025-01-08 10:08:16.152947968,0.71666718,0.46919284131952693
2025-01-08 10:08:16.162916864,0.72869313,0.4827382621110096
2025-01-08 10:08:16.172889088,0.74423838,0.496158200800069
2025-01-08 10:08:16.182915840,0.73315334,0.5094407162943715
2025-01-08 10:08:16.193049856,0.68528348,0.5225739307801165
2025-01-08 10:08:16.203207936,0.57323074,0.5355460396516298
2025-01-08 10:08:16.213111040,0.4299022,0.5483453214031777
2025-01-08 10:08:16.223095040,0.34532458,0.5609601474747895
2025-01-08 10:08:16.233088000,0.34639674,0.5733789920439055
2025-01-08 10:08:16.243177984,0.38020045,0.5855904417547025
2025-01-08 10:08:16.253776128,0.45199865,0.5975832053769882
2025-01-08 10:08:16.263051008,0.6445623,0.6093461233866064
2025-01-08 10:08:16.273341952,0.93471533,0.6208681774593477
2025-01-08 10:08:16.282970880,1.1943233,0.6321384998704268
2025-01-08 10:08:16.292996864,1.3037436,0.6431463827916465
2025-01-08 10:08:16.306441984,1.21177125,0.6538812874784578
2025-01-08 10:08:16.313168896,0.9763447,0.6643328533391901
2025-01-08 10:08:16.323100160,0.7907204,0.6744909068788301
2025-01-08 10:08:16.333054976,0.77442008,0.6843454705098083
2025-01-08 10:08:16.343600128,0.86440498,0.6938867712223635
2025-01-08 10:08:16.360145152,0.90600693,0.7031052491071563
2025-01-08 10:08:16.363022080,0.86721164,0.7119915657229189
2025-01-08 10:08:16.373487104,0.83236879,0.7205366123020455
2025-01-08 10:08:16.383054080,0.86230427,0.7287315177871557
2025-01-08 10:08:16.393094912,0.93421865,0.736567656691793
2025-01-08 10:08:16.403026944,1.00220132,0.7440366567785562
2025-01-08 10:08:16.412998912,1.03178811,0.7511304065481068
2025-01-08 10:08:16.423041024,1.04869461,0.7578410625326426
2025-01-08 10:08:16.433088000,1.0764823,0.7641610563875795
2025-01-08 10:08:16.443021056,1.07087386,0.7700831017753461
2025-01-08 10:08:16.453239040,1.00088763,0.7756002010353571
2025-01-08 10:08:16.462974976,0.89140326,0.780705651634402
2025-01-08 10:08:16.473082112,0.8159318,0.7853930523918566
2025-01-08 10:08:16.483289088,0.80264515,0.7896563094743114
2025-01-08 10:08:16.493139968,0.81956983,0.7934896421543843
2025-01-08 10:08:16.503267072,0.81279117,0.7968875883286819
2025-01-08 10:08:16.513297152,0.74832547,0.7998450097900588
2025-01-08 10:08:16.523197952,0.67225909,0.8023570972495276
2025-01-08 10:08:16.533344000,0.61784953,0.8044193751033678
2025-01-08 10:08:16.543534080,0.58242965,0.8060277059411849
2025-01-08 10:08:16.553313024,0.56045324,0.8071782947908887
2025-01-08 10:08:16.563292928,0.54072678,0.807867693096756
2025-01-08 10:08:16.573248000,0.50928038,0.8080928024269726
2025-01-08 10:08:16.583326976,0.4794268,0.8078508779072564
2025-01-08 10:08:16.593289984,0.46480298,0.8071395313773915
2025-01-08 10:08:16.603305984,0.44823253,0.805956734267723
2025-01-08 10:08:16.613251072,0.42943704,0.8043008201928893
2025-01-08 10:08:16.623259136,0.40780574,0.8021704872602989
2025-01-08 10:08:16.633278976,0.4063549,0.7995648000910861
2025-01-08 10:08:16.643273216,0.41268837,0.7964831915515191
2025-01-08 10:08:16.653406976,0.40460217,0.792925464193061
2025-01-08 10:08:16.663342080,0.37695557,0.7888917913995271
2025-01-08 10:08:16.673230848,0.34280586,0.7843827182400168
2025-01-08 10:08:16.683419904,0.31990391,0.7793991620265387
2025-01-08 10:08:16.693352960,0.31916052,0.7739424125754846
2025-01-08 10:08:16.703310848,0.32770866,0.7680141321723566
2025-01-08 10:08:16.713388032,0.32141244,0.7616163552393823
2025-01-08 10:08:16.723382016,0.29025775,0.7547514877059072
2025-01-08 10:08:16.733424896,0.22294265,0.7474223060816854
2025-01-08 10:08:16.743395072,0.13686198,0.7396319562334398
2025-01-08 10:08:16.753745152,0.04195148,0.7313839518653005
2025-01-08 10:08:16.763350016,-0.04202658,0.7226821727039748
2025-01-08 10:08:16.773370880,-0.11195785,0.7135308623897436
2025-01-08 10:08:16.783358976,-0.16353762,0.7039346260746171
2025-01-08 10:08:16.793416960,-0.20975661,0.6938984277292246
2025-01-08 10:08:16.803437056,-0.27371109,0.6834275871602542
2025-01-08 10:08:16.813460992,-0.34178913,0.6725277767404886
2025-01-08 10:08:16.823420928,-0.41322273,0.6612050178537265
2025-01-08 10:08:16.833435904,-0.50090998,0.6494656770571068
2025-01-08 10:08:16.843406848,-0.58791459,0.6373164619635919
2025-01-08 10:08:16.853436928,-0.66018271,0.6247644168475863
2025-01-08 10:08:16.863436032,-0.72284645,0.6118169179769064
2025-01-08 10:08:16.873417984,-0.77128476,0.5984816686745296
2025-01-08 10:08:16.883729920,-0.79776812,0.5847666941137871
2025-01-08 10:08:16.893487104,-0.80846488,0.5706803358508712
2025-01-08 10:08:16.903492096,-0.80270058,0.5562312460987516
2025-01-08 10:08:16.913501952,-0.79136485,0.5414283817468095
2025-01-08 10:08:16.923441920,-0.78588861,0.5262809981307024
2025-01-08 10:08:16.933633024,-0.79361832,0.5107986425571835
2025-01-08 10:08:16.943492864,-0.80521852,0.49499114758880003
2025-01-08 10:08:16.953545216,-0.81704408,0.47886862409359277
2025-01-08 10:08:16.963540992,-0.83636606,0.46244145406511583
2025-01-08 10:08:16.973547008,-0.84390426,0.44572028321828333
2025-01-08 10:08:16.983537920,-0.83400685,0.42871601336673604
2025-01-08 10:08:16.993604864,-0.80907094,0.41143979458760177
2025-01-08 10:08:17.003581952,-0.77018023,0.3939030171797031
2025-01-08 10:08:17.013591040,-0.68731302,0.37611730342142946
2025-01-08 10:08:17.023735040,-0.56449515,0.3580944991346691
2025-01-08 10:08:17.033536000,-0.42405742,0.33984666506134253
2025-01-08 10:08:17.043600128,-0.27956039,0.32138606805925163
2025-01-08 10:08:17.053651968,-0.13323605,0.3027251721240944
2025-01-08 10:08:17.063649792,0.035191,0.28387662924465173
2025-01-08 10:08:17.073676032,0.26654398,0.26485327009828213
2025-01-08 10:08:17.083722240,0.54975694,0.24566809459400427
2025-01-08 10:08:17.093769984,0.84032112,0.22633426227056438
2025-01-08 10:08:17.103593984,1.04940009,0.20686508255701544
2025-01-08 10:08:17.113650944,1.11108899,0.1872740049034451
2025-01-08 10:08:17.123712000,1.04267108,0.1675746087896034
2025-01-08 10:08:17.133635072,0.95143497,0.1477805936192789
2025-01-08 10:08:17.143702016,0.94401813,0.1279057685083733
2025-01-08 10:08:17.153666048,1.00621879,0.10796404197471167
2025-01-08 10:08:17.166754048,1.04561806,0.0879694115377113
2025-01-08 10:08:17.173808128,0.99846768,0.06793595323610646
2025-01-08 10:08:17.183919872,0.86101776,0.047877811071999725
2025-01-08 10:08:17.193934080,0.67399228,0.027809186389571663
2025-01-08 10:08:17.203873024,0.48866534,0.007744327196838005
2025-01-08 10:08:17.213884160,0.36042601,-0.012302482561104493
2025-01-08 10:08:17.223943936,0.2802642,-0.032316933768863305
2025-01-08 10:08:17.233871104,0.17744094,-0.05228470293904694
2025-01-08 10:08:17.244035072,0.02476913,-0.07219146303352468
2025-01-08 10:08:17.253766912,-0.17242491,-0.09202289429908067
2025-01-08 10:08:17.263667968,-0.38032502,-0.11176469510887731
2025-01-08 10:08:17.273829888,-0.57238668,-0.13140259280113298
2025-01-08 10:08:17.283770112,-0.72773463,-0.15092235450642127
2025-01-08 10:08:17.293837056,-0.80512488,-0.17030979795500195
2025-01-08 10:08:17.303808000,-0.80378664,-0.1895508022556092
2025-01-08 10:08:17.313920000,-0.75738895,-0.20863131863713996
2025-01-08 10:08:17.323828992,-0.71165568,-0.2275373811447134
2025-01-08 10:08:17.333907968,-0.69137555,-0.24625511728160718
2025-01-08 10:08:17.343872000,-0.69682097,-0.2647707585886154
2025-01-08 10:08:17.353893888,-0.72099733,-0.2830706511524215
2025-01-08 10:08:17.363860992,-0.75011283,-0.3011412660346342
2025-01-08 10:08:17.373858816,-0.77391458,-0.3189692096131952
2025-01-08 10:08:17.383853056,-0.78454942,-0.33654123382793605
2025-01-08 10:08:17.393858816,-0.8136884,-0.3538442463221367
2025-01-08 10:08:17.403917056,-0.83413869,-0.3708653204720187
2025-01-08 10:08:17.413901056,-0.84365261,-0.3875917052961964
2025-01-08 10:08:17.423912960,-0.8558296,-0.40401083523719966
2025-01-08 10:08:17.433927936,-0.86514968,-0.42011033980728885
2025-01-08 10:08:17.443944960,-0.85805976,-0.4358780530908853
2025-01-08 10:08:17.453982976,-0.84077233,-0.45130202309605477
2025-01-08 10:08:17.463916032,-0.8383683,-0.46637052094760667
2025-01-08 10:08:17.473956096,-0.84634638,-0.48107204991448643
